Instruction,condsFile,emotions,emotionsREP,TeclaQ2,TeclaP2,CATarget2,CAHappy2,Body,Face,Type,Stimulus,Gender,Block.thisRepN,Block.thisTrialN,Block.thisN,Block.thisIndex,Trials.thisRepN,Trials.thisTrialN,Trials.thisN,Trials.thisIndex,respNo,CAfear,Instruction_1.started,Instruction_1.stopped,key_resp_3.keys,key_resp_3.rt,key_resp_3.started,key_resp_3.stopped,text_6.started,text_6.stopped,Instructions2.started,Instructions2.stopped,key_resp_4.keys,key_resp_4.rt,key_resp_4.started,key_resp_4.stopped,text_8.started,text_8.stopped,text_7.started,text_7.stopped,text_9.started,text_9.stopped,Qtext.started,Qtext.stopped,key_resp_5.keys,key_resp_5.rt,key_resp_5.started,key_resp_5.stopped,ISI.started,ISI.stopped,fix_duration,start,text_12.started,text_12.stopped,image.started,image.stopped,key_resp_2.keys,key_resp_2.rt,key_resp_2.started,key_resp_2.stopped,text.started,text.stopped,text_10.started,text_10.stopped,ISI_3.started,ISI_3.stopped,text_2.started,text_2.stopped,key_resp_6.keys,key_resp_6.rt,key_resp_6.started,key_resp_6.stopped,CAanger,text_3.started,text_3.stopped,key_resp_9.keys,key_resp_9.rt,key_resp_9.started,key_resp_9.stopped,participant,impar_incluso,date,expName,psychopyVersion,frameRate,TeclaQ,TeclaP,
instFear.xlsx,fear.xlsx,miedo o felicidad.,¿Tiene una expresión de miedo o felicidad?,Tecla Q = Miedo,Tecla P = Feliz,q,p,Control,Happy,Control Body,CoBo_3_h-copy.png,male,0,0,0,0,0,0,0,52,2,p,10.842490126029588,None,space,0.5403755329898559,10.842490126029588,None,10.842490126029588,None,11.443791022000369,None,space,0.28078464802820235,11.443791022000369,None,11.443791022000369,None,11.443791022000369,None,11.443791022000369,None,11.75561552803265,None,space,0.6689841650077142,11.75561552803265,None,0.01348312763730064,None,1.1000000000000003,1.2000000000000004,17.528725693002343,18.660609603044577,18.61082725704182,18.7302941630478,q,2.0876732239848934,18.61082725704182,None,18.71052539703669,None,18.71052539703669,None,0.005024579411838204,None,,,,,,,,,,,,,,999,impar,2020_Feb_26_1955,FBC_2019_v2,3.2.4,60.028615516486035,Tecla Q = Feliz,Tecla P = Miedo,
instFear.xlsx,fear.xlsx,miedo o felicidad.,¿Tiene una expresión de miedo o felicidad?,Tecla Q = Miedo,Tecla P = Feliz,q,p,Happy,Fear,Incongruent,I_2_h_f-copy.png,male,0,0,0,0,0,1,1,21,,,,,,,,,,,,,,,,,,,,,,,,,,,,,,,0.75,0.85,20.762646675051656,21.54355071199825,21.514739561011083,21.645545308012515,p,1.4767881809966639,21.514739561011083,None,21.59638223500224,None,21.59638223500224,None,0.01650038838852197,None,,,,,,,,,,,,,,999,impar,2020_Feb_26_1955,FBC_2019_v2,3.2.4,60.028615516486035,Tecla Q = Feliz,Tecla P = Miedo,
instFear.xlsx,fear.xlsx,miedo o felicidad.,¿Tiene una expresión de miedo o felicidad?,Tecla Q = Miedo,Tecla P = Feliz,q,p,Control,Fear,Control Body,CoBo_1_f-copy.png,male,0,0,0,0,0,2,2,40,,,,,,,,,,,,,,,,,,,,,,,,,,,,,,,0.9500000000000002,1.0500000000000003,23.04929113201797,24.01295232400298,23.986620427051093,24.098864620027598,p,0.9229359719902277,23.986620427051093,None,24.07948271604255,None,24.07948271604255,None,0.0018550356617197394,None,,,,,,,,,,,,,,999,impar,2020_Feb_26_1955,FBC_2019_v2,3.2.4,60.028615516486035,Tecla Q = Feliz,Tecla P = Miedo,
instFear.xlsx,fear.xlsx,miedo o felicidad.,¿Tiene una expresión de miedo o felicidad?,Tecla Q = Miedo,Tecla P = Feliz,q,p,Control,Fear,Control Body,CoBo_4_f-copy.png,female,0,0,0,0,0,3,3,43,,,,,,,,,,,,,,,,,,,,,,,,,,,,,,,1.1500000000000004,1.2500000000000004,24.980068008997478,26.151583135011606,26.10409860603977,26.230395971040707,p,0.6134216790087521,26.10409860603977,None,26.20170270104427,None,26.20170270104427,None,0.016163592343218625,None,,,,,,,,,,,,,,999,impar,2020_Feb_26_1955,FBC_2019_v2,3.2.4,60.028615516486035,Tecla Q = Feliz,Tecla P = Miedo,
instFear.xlsx,fear.xlsx,miedo o felicidad.,¿Tiene una expresión de miedo o felicidad?,Tecla Q = Miedo,Tecla P = Feliz,q,p,Fear,Happy,Incongruent,I_2_f_h-copy.png,male,0,0,0,0,0,4,4,11,,,,,,,,,,,,,,,,,,,,,,,,,,,,,,,1.1000000000000003,1.2000000000000004,26.7811846670229,27.888849446026143,27.847384676046204,27.951387659995817,q,0.6331225699977949,27.847384676046204,None,27.951387659995817,None,27.951387659995817,None,0.014642133377492428,None,,,,,,,,,,,,,,999,impar,2020_Feb_26_1955,FBC_2019_v2,3.2.4,60.028615516486035,Tecla Q = Feliz,Tecla P = Miedo,
instFear.xlsx,fear.xlsx,miedo o felicidad.,¿Tiene una expresión de miedo o felicidad?,Tecla Q = Miedo,Tecla P = Feliz,q,p,Control,Happy,Control Body,CoBo_8_h-copy.png,male,0,0,0,0,0,5,5,57,,,,,,,,,,,,,,,,,,,,,,,,,,,,,,,1.0000000000000002,1.1000000000000003,28.514705905050505,29.51939031202346,29.51939031202346,29.63394968601642,q,0.8606864989851601,29.51939031202346,None,29.61488869000459,None,29.61488869000459,None,0.004267117707058787,None,,,,,,,,,,,,,,999,impar,2020_Feb_26_1955,FBC_2019_v2,3.2.4,60.028615516486035,Tecla Q = Feliz,Tecla P = Miedo,
instFear.xlsx,fear.xlsx,miedo o felicidad.,¿Tiene una expresión de miedo o felicidad?,Tecla Q = Miedo,Tecla P = Feliz,q,p,Fear,Fear,Congruent,C_9_f-copy.png,female,0,0,0,0,0,6,6,8,,,,,,,,,,,,,,,,,,,,,,,,,,,,,,,1.1500000000000004,1.2500000000000004,30.44927499903133,31.60342355800094,31.585366846004035,31.685896845010575,p,0.5812333899666555,31.585366846004035,None,31.669149332039524,None,31.669149332039524,None,0.012723446416202933,None,,,,,,,,,,,,,,999,impar,2020_Feb_26_1955,FBC_2019_v2,3.2.4,60.028615516486035,Tecla Q = Feliz,Tecla P = Miedo,
instFear.xlsx,fear.xlsx,miedo o felicidad.,¿Tiene una expresión de miedo o felicidad?,Tecla Q = Miedo,Tecla P = Feliz,q,p,Fear,Fear,Congruent,C_10_f-copy.png,female,0,0,0,0,0,7,7,9,,,,,,,,,,,,,,,,,,,,,,,,,,,,,,,1.0500000000000003,1.1500000000000004,32.21492539503379,33.27142970304703,33.25038828700781,33.36802698200336,q,0.8270899780327454,33.25038828700781,None,33.34912455204176,None,33.34912455204176,None,0.0031476307194679976,None,,,,,,,,,,,,,,999,impar,2020_Feb_26_1955,FBC_2019_v2,3.2.4,60.028615516486035,Tecla Q = Feliz,Tecla P = Miedo,
instFear.xlsx,fear.xlsx,miedo o felicidad.,¿Tiene una expresión de miedo o felicidad?,Tecla Q = Miedo,Tecla P = Feliz,q,p,Control,Happy,Control Body,CoBo_9_h-copy.png,female,0,0,0,0,0,8,8,58,,,,,,,,,,,,,,,,,,,,,,,,,,,,,,,1.0500000000000003,1.1500000000000004,34.11746420501731,35.188080699997954,35.166912780026905,35.28407216101186,p,0.6266055919695646,35.166912780026905,None,35.25643476401456,None,35.25643476401456,None,0.004557474690955132,None,,,,,,,,,,,,,,999,impar,2020_Feb_26_1955,FBC_2019_v2,3.2.4,60.028615516486035,Tecla Q = Feliz,Tecla P = Miedo,
instFear.xlsx,fear.xlsx,miedo o felicidad.,¿Tiene una expresión de miedo o felicidad?,Tecla Q = Miedo,Tecla P = Feliz,q,p,Fear,Happy,Incongruent,I_7_f_h-copy.png,male,0,0,0,0,0,9,9,16,,,,,,,,,,,,,,,,,,,,,,,,,,,,,,,1.2000000000000004,1.3000000000000005,35.83539366303012,37.054902867996134,37.0342563050217,37.15142209100304,q,1.048159486032091,37.0342563050217,None,37.122645171009935,None,37.122645171009935,None,0.0035454556928016245,None,,,,,,,,,,,,,,999,impar,2020_Feb_26_1955,FBC_2019_v2,3.2.4,60.028615516486035,Tecla Q = Feliz,Tecla P = Miedo,
instFear.xlsx,fear.xlsx,miedo o felicidad.,¿Tiene una expresión de miedo o felicidad?,Tecla Q = Miedo,Tecla P = Feliz,q,p,Control,Fear,Control Body,CoBo_6_f-copy.png,female,0,0,0,0,0,10,10,45,,,,,,,,,,,,,,,,,,,,,,,,,,,,,,,1.0000000000000002,1.1000000000000003,38.139789967041,39.15616072603734,39.13519856001949,39.25173734303098,p,1.1092082489631139,39.13519856001949,None,39.22550078999484,None,39.22550078999484,None,0.0006826426833868027,None,,,,,,,,,,,,,,999,impar,2020_Feb_26_1955,FBC_2019_v2,3.2.4,60.028615516486035,Tecla Q = Feliz,Tecla P = Miedo,
instFear.xlsx,fear.xlsx,miedo o felicidad.,¿Tiene una expresión de miedo o felicidad?,Tecla Q = Miedo,Tecla P = Feliz,q,p,Happy,Happy,Congruent,C_4_h-copy.png,female,0,0,0,0,0,11,11,33,,,,,,,,,,,,,,,,,,,,,,,,,,,,,,,0.8,0.9,40.30261599004734,41.11268801300321,41.08750958601013,41.20848943304736,q,0.7470363329630345,41.08750958601013,None,41.188868809025735,None,41.188868809025735,None,0.013547582319006324,None,,,,,,,,,,,,,,999,impar,2020_Feb_26_1955,FBC_2019_v2,3.2.4,60.028615516486035,Tecla Q = Feliz,Tecla P = Miedo,
instFear.xlsx,fear.xlsx,miedo o felicidad.,¿Tiene una expresión de miedo o felicidad?,Tecla Q = Miedo,Tecla P = Feliz,q,p,Fear,Fear,Congruent,C_1_f-copy.png,male,0,0,0,0,0,12,12,0,,,,,,,,,,,,,,,,,,,,,,,,,,,,,,,0.8,0.9,41.86990215204423,42.69561580900336,42.670772386016324,42.790183369012084,p,0.817720270017162,42.670772386016324,None,42.770697797997855,None,42.770697797997855,None,0.005682896648067981,None,,,,,,,,,,,,,,999,impar,2020_Feb_26_1955,FBC_2019_v2,3.2.4,60.028615516486035,Tecla Q = Feliz,Tecla P = Miedo,
instFear.xlsx,fear.xlsx,miedo o felicidad.,¿Tiene una expresión de miedo o felicidad?,Tecla Q = Miedo,Tecla P = Feliz,q,p,Happy,Fear,Incongruent,I_7_h_f-copy.png,male,0,0,0,0,0,13,13,26,,,,,,,,,,,,,,,,,,,,,,,,,,,,,,,0.8500000000000001,0.9500000000000001,43.52596390602412,44.40658519201679,44.382082239026204,44.50525548501173,p,0.5863111560465768,44.382082239026204,None,44.48713787604356,None,44.48713787604356,None,0.004053470736835152,None,,,,,,,,,,,,,,999,impar,2020_Feb_26_1955,FBC_2019_v2,3.2.4,60.028615516486035,Tecla Q = Feliz,Tecla P = Miedo,
instFear.xlsx,fear.xlsx,miedo o felicidad.,¿Tiene una expresión de miedo o felicidad?,Tecla Q = Miedo,Tecla P = Feliz,q,p,Control,Happy,Control Body,CoBo_4_h-copy.png,female,0,0,0,0,0,14,14,53,,,,,,,,,,,,,,,,,,,,,,,,,,,,,,,0.8,0.9,45.006605552043766,45.82416255399585,45.80422480002744,45.90524449100485,q,0.509011018963065,45.80422480002744,None,45.88934832002269,None,45.88934832002269,None,0.004254629660863429,None,,,,,,,,,,,,,,999,impar,2020_Feb_26_1955,FBC_2019_v2,3.2.4,60.028615516486035,Tecla Q = Feliz,Tecla P = Miedo,
instFear.xlsx,fear.xlsx,miedo o felicidad.,¿Tiene una expresión de miedo o felicidad?,Tecla Q = Miedo,Tecla P = Feliz,q,p,Control,Happy,Control Body,CoBo_1_h-copy.png,male,0,0,0,0,0,15,15,50,,,,,,,,,,,,,,,,,,,,,,,,,,,,,,,0.8,0.9,46.353184975043405,47.158708005037624,47.13945036503719,47.25945318501908,q,0.8729826089693233,47.13945036503719,None,47.22121274500387,None,47.22121274500387,None,0.008065495698247105,None,,,,,,,,,,,,,,999,impar,2020_Feb_26_1955,FBC_2019_v2,3.2.4,60.028615516486035,Tecla Q = Feliz,Tecla P = Miedo,
instFear.xlsx,fear.xlsx,miedo o felicidad.,¿Tiene una expresión de miedo o felicidad?,Tecla Q = Miedo,Tecla P = Feliz,q,p,Happy,Happy,Congruent,C_8_h-copy.png,male,0,0,0,0,0,16,16,37,,,,,,,,,,,,,,,,,,,,,,,,,,,,,,,0.8500000000000001,0.9500000000000001,48.0555463579949,48.920680634037126,48.894144018006045,49.00495040602982,q,0.5631007099873386,48.894144018006045,None,49.00495040602982,None,49.00495040602982,None,0.00408476369921118,None,,,,,,,,,,,,,,999,impar,2020_Feb_26_1955,FBC_2019_v2,3.2.4,60.028615516486035,Tecla Q = Feliz,Tecla P = Miedo,
instFear.xlsx,fear.xlsx,miedo o felicidad.,¿Tiene una expresión de miedo o felicidad?,Tecla Q = Miedo,Tecla P = Feliz,q,p,Fear,Fear,Congruent,C_8_f-copy.png,male,0,0,0,0,0,17,17,7,,,,,,,,,,,,,,,,,,,,,,,,,,,,,,,1.2000000000000004,1.3000000000000005,49.52195775602013,50.729730824998114,50.70889139303472,50.82277359103318,p,0.6685062639880925,50.70889139303472,None,50.82277359103318,None,50.82277359103318,None,0.0007596866926178336,None,,,,,,,,,,,,,,999,impar,2020_Feb_26_1955,FBC_2019_v2,3.2.4,60.028615516486035,Tecla Q = Feliz,Tecla P = Miedo,
instFear.xlsx,fear.xlsx,miedo o felicidad.,¿Tiene una expresión de miedo o felicidad?,Tecla Q = Miedo,Tecla P = Feliz,q,p,Happy,Happy,Congruent,C_6_h-copy.png,female,0,0,0,0,0,18,18,35,,,,,,,,,,,,,,,,,,,,,,,,,,,,,,,1.0000000000000002,1.1000000000000003,51.42120847001206,52.42415498604532,52.40612946200417,52.50590936205117,q,0.7322420440032147,52.40612946200417,None,52.50590936205117,None,52.50590936205117,None,0.003641603689175099,None,,,,,,,,,,,,,,999,impar,2020_Feb_26_1955,FBC_2019_v2,3.2.4,60.028615516486035,Tecla Q = Feliz,Tecla P = Miedo,
instFear.xlsx,fear.xlsx,miedo o felicidad.,¿Tiene una expresión de miedo o felicidad?,Tecla Q = Miedo,Tecla P = Feliz,q,p,Fear,Happy,Incongruent,I_1_f_h-copy.png,male,0,0,0,0,0,19,19,10,,,,,,,,,,,,,,,,,,,,,,,,,,,,,,,0.9500000000000002,1.0500000000000003,53.17433887900552,54.128525662003085,54.10741647903342,54.22510423604399,q,0.5687907469691709,54.10741647903342,None,54.22510423604399,None,54.22510423604399,None,0.0055623986991122365,None,,,,,,,,,,,,,,999,impar,2020_Feb_26_1955,FBC_2019_v2,3.2.4,60.028615516486035,Tecla Q = Feliz,Tecla P = Miedo,
instFear.xlsx,fear.xlsx,miedo o felicidad.,¿Tiene una expresión de miedo o felicidad?,Tecla Q = Miedo,Tecla P = Feliz,q,p,Control,Happy,Control Body,CoBo_7_h-copy.png,male,0,0,0,0,0,20,20,56,,,,,,,,,,,,,,,,,,,,,,,,,,,,,,,0.9000000000000001,1.0000000000000002,54.742061979020946,55.647824565006886,55.647824565006886,55.7758215580252,q,0.5555241300025955,55.647824565006886,None,55.74781848600833,None,55.74781848600833,None,0.0024863897124305367,None,,,,,,,,,,,,,,999,impar,2020_Feb_26_1955,FBC_2019_v2,3.2.4,60.028615516486035,Tecla Q = Feliz,Tecla P = Miedo,
instFear.xlsx,fear.xlsx,miedo o felicidad.,¿Tiene una expresión de miedo o felicidad?,Tecla Q = Miedo,Tecla P = Feliz,q,p,Control,Happy,Control Body,CoBo_6_h-copy.png,female,0,0,0,0,0,21,21,55,,,,,,,,,,,,,,,,,,,,,,,,,,,,,,,1.2000000000000004,1.3000000000000005,56.243624025024474,57.465363095048815,57.443383757025,57.562561407044996,q,0.5908699409919791,57.443383757025,None,57.54287706501782,None,57.54287706501782,None,0.00514362973626703,None,,,,,,,,,,,,,,999,impar,2020_Feb_26_1955,FBC_2019_v2,3.2.4,60.028615516486035,Tecla Q = Feliz,Tecla P = Miedo,
instFear.xlsx,fear.xlsx,miedo o felicidad.,¿Tiene una expresión de miedo o felicidad?,Tecla Q = Miedo,Tecla P = Feliz,q,p,Fear,Happy,Incongruent,I_9_f_h-copy.png,female,0,0,0,0,0,22,22,18,,,,,,,,,,,,,,,,,,,,,,,,,,,,,,,1.0500000000000003,1.1500000000000004,58.09456414502347,59.160054749052506,59.11017217504559,59.22924419102492,q,0.612121140002273,59.11017217504559,None,59.21004872099729,None,59.21004872099729,None,0.015317432349547744,None,,,,,,,,,,,,,,999,impar,2020_Feb_26_1955,FBC_2019_v2,3.2.4,60.028615516486035,Tecla Q = Feliz,Tecla P = Miedo,
instFear.xlsx,fear.xlsx,miedo o felicidad.,¿Tiene una expresión de miedo o felicidad?,Tecla Q = Miedo,Tecla P = Feliz,q,p,Happy,Fear,Incongruent,I_9_h_f-copy.png,female,0,0,0,0,0,23,23,28,,,,,,,,,,,,,,,,,,,,,,,,,,,,,,,0.8,0.9,59.77733273705235,60.60222015104955,60.553588773997035,60.678208634024486,p,0.6607338840258308,60.553588773997035,None,60.65230623801472,None,60.65230623801472,None,0.0007938236813060939,None,,,,,,,,,,,,,,999,impar,2020_Feb_26_1955,FBC_2019_v2,3.2.4,60.028615516486035,Tecla Q = Feliz,Tecla P = Miedo,
instFear.xlsx,fear.xlsx,miedo o felicidad.,¿Tiene una expresión de miedo o felicidad?,Tecla Q = Miedo,Tecla P = Feliz,q,p,Control,Fear,Control Body,CoBo_10_f-copy.png,female,0,0,0,0,0,24,24,49,,,,,,,,,,,,,,,,,,,,,,,,,,,,,,,1.1000000000000003,1.2000000000000004,61.25962595100282,62.37744373403257,62.349124781030696,62.480722057051025,p,1.0622396229882725,62.349124781030696,None,62.448388966033235,None,62.448388966033235,None,0.004896243684925139,None,,,,,,,,,,,,,,999,impar,2020_Feb_26_1955,FBC_2019_v2,3.2.4,60.028615516486035,Tecla Q = Feliz,Tecla P = Miedo,
instFear.xlsx,fear.xlsx,miedo o felicidad.,¿Tiene una expresión de miedo o felicidad?,Tecla Q = Miedo,Tecla P = Feliz,q,p,Happy,Happy,Congruent,C_5_h-copy.png,female,0,0,0,0,0,25,25,34,,,,,,,,,,,,,,,,,,,,,,,,,,,,,,,1.1000000000000003,1.2000000000000004,63.462019476050045,64.56578911002725,64.54522894299589,64.64970206603175,q,0.7179119339562021,64.54522894299589,None,64.6316240170272,None,64.6316240170272,None,0.002713149704504758,None,,,,,,,,,,,,,,999,impar,2020_Feb_26_1955,FBC_2019_v2,3.2.4,60.028615516486035,Tecla Q = Feliz,Tecla P = Miedo,
instFear.xlsx,fear.xlsx,miedo o felicidad.,¿Tiene una expresión de miedo o felicidad?,Tecla Q = Miedo,Tecla P = Feliz,q,p,Fear,Fear,Congruent,C_5_f-copy.png,female,0,0,0,0,0,26,26,4,,,,,,,,,,,,,,,,,,,,,,,,,,,,,,,1.0500000000000003,1.1500000000000004,65.31489932001568,66.38431712205056,66.36301618604921,66.47940484405262,p,0.9812995389802381,66.36301618604921,None,66.45195633301046,None,66.45195633301046,None,0.001673598715569824,None,,,,,,,,,,,,,,999,impar,2020_Feb_26_1955,FBC_2019_v2,3.2.4,60.028615516486035,Tecla Q = Feliz,Tecla P = Miedo,
instFear.xlsx,fear.xlsx,miedo o felicidad.,¿Tiene una expresión de miedo o felicidad?,Tecla Q = Miedo,Tecla P = Feliz,q,p,Fear,Fear,Congruent,C_7_f-copy.png,male,0,0,0,0,0,27,27,6,,,,,,,,,,,,,,,,,,,,,,,,,,,,,,,1.1500000000000004,1.2500000000000004,67.41297585901339,68.56737652904121,68.54665539204143,68.66406351601472,p,0.696670870995149,68.54665539204143,None,68.63450732902857,None,68.63450732902857,None,0.013525382441002876,None,,,,,,,,,,,,,,999,impar,2020_Feb_26_1955,FBC_2019_v2,3.2.4,60.028615516486035,Tecla Q = Feliz,Tecla P = Miedo,
instFear.xlsx,fear.xlsx,miedo o felicidad.,¿Tiene una expresión de miedo o felicidad?,Tecla Q = Miedo,Tecla P = Feliz,q,p,Control,Fear,Control Body,CoBo_7_f-copy.png,male,0,0,0,0,0,28,28,46,,,,,,,,,,,,,,,,,,,,,,,,,,,,,,,0.9500000000000002,1.0500000000000003,69.31355372903636,70.28073755803052,70.23129842604976,70.34891382104252,p,0.7269412699970417,70.23129842604976,None,70.33072541601723,None,70.33072541601723,None,0.01559953938703984,None,,,,,,,,,,,,,,999,impar,2020_Feb_26_1955,FBC_2019_v2,3.2.4,60.028615516486035,Tecla Q = Feliz,Tecla P = Miedo,
instFear.xlsx,fear.xlsx,miedo o felicidad.,¿Tiene una expresión de miedo o felicidad?,Tecla Q = Miedo,Tecla P = Feliz,q,p,Fear,Happy,Incongruent,I_6_f_h-copy.png,female,0,0,0,0,0,29,29,15,,,,,,,,,,,,,,,,,,,,,,,,,,,,,,,1.0000000000000002,1.1000000000000003,71.00142780103488,72.03209706803318,72.00222616101382,72.13150428200606,q,0.6591784859774634,72.00222616101382,None,72.10268982104026,None,72.10268982104026,None,0.0017596766701899469,None,,,,,,,,,,,,,,999,impar,2020_Feb_26_1955,FBC_2019_v2,3.2.4,60.028615516486035,Tecla Q = Feliz,Tecla P = Miedo,
instFear.xlsx,fear.xlsx,miedo o felicidad.,¿Tiene una expresión de miedo o felicidad?,Tecla Q = Miedo,Tecla P = Feliz,q,p,Happy,Happy,Congruent,C_10_h-copy.png,female,0,0,0,0,0,30,30,39,,,,,,,,,,,,,,,,,,,,,,,,,,,,,,,1.0500000000000003,1.1500000000000004,72.69856371701462,73.77222616301151,73.74974280700553,73.86946563702077,q,0.7293995689833537,73.74974280700553,None,73.84967773302924,None,73.84967773302924,None,0.003029325685929507,None,,,,,,,,,,,,,,999,impar,2020_Feb_26_1955,FBC_2019_v2,3.2.4,60.028615516486035,Tecla Q = Feliz,Tecla P = Miedo,
instFear.xlsx,fear.xlsx,miedo o felicidad.,¿Tiene una expresión de miedo o felicidad?,Tecla Q = Miedo,Tecla P = Feliz,q,p,Control,Happy,Control Body,CoBo_10_h-copy.png,female,0,0,0,0,0,31,31,59,,,,,,,,,,,,,,,,,,,,,,,,,,,,,,,0.75,0.85,74.51742431405,75.27515628002584,75.27515628002584,75.40149607200874,q,0.6773056199890561,75.27515628002584,None,75.37629754701629,None,75.37629754701629,None,0.00318695668829605,None,,,,,,,,,,,,,,999,impar,2020_Feb_26_1955,FBC_2019_v2,3.2.4,60.028615516486035,Tecla Q = Feliz,Tecla P = Miedo,
instFear.xlsx,fear.xlsx,miedo o felicidad.,¿Tiene una expresión de miedo o felicidad?,Tecla Q = Miedo,Tecla P = Feliz,q,p,Happy,Fear,Incongruent,I_1_h_f-copy.png,male,0,0,0,0,0,32,32,20,,,,,,,,,,,,,,,,,,,,,,,,,,,,,,,1.2000000000000004,1.3000000000000005,75.98490934702568,77.1893183630309,77.16963651101105,77.28383666404989,p,0.6927253230242059,77.16963651101105,None,77.28383666404989,None,77.28383666404989,None,0.005579746619332582,None,,,,,,,,,,,,,,999,impar,2020_Feb_26_1955,FBC_2019_v2,3.2.4,60.028615516486035,Tecla Q = Feliz,Tecla P = Miedo,
instFear.xlsx,fear.xlsx,miedo o felicidad.,¿Tiene una expresión de miedo o felicidad?,Tecla Q = Miedo,Tecla P = Feliz,q,p,Control,Happy,Control Body,CoBo_5_h-copy.png,female,0,0,0,0,0,33,33,54,,,,,,,,,,,,,,,,,,,,,,,,,,,,,,,1.1000000000000003,1.2000000000000004,77.91758574201958,79.02384355204413,79.00156145601068,79.12130001903279,q,0.6506757939932868,79.00156145601068,None,79.10141911701066,None,79.10141911701066,None,0.016553197405301034,None,,,,,,,,,,,,,,999,impar,2020_Feb_26_1955,FBC_2019_v2,3.2.4,60.028615516486035,Tecla Q = Feliz,Tecla P = Miedo,
instFear.xlsx,fear.xlsx,miedo o felicidad.,¿Tiene una expresión de miedo o felicidad?,Tecla Q = Miedo,Tecla P = Feliz,q,p,Happy,Happy,Congruent,C_1_h-copy.png,male,0,0,0,0,0,34,34,30,,,,,,,,,,,,,,,,,,,,,,,,,,,,,,,0.9500000000000002,1.0500000000000003,79.6857138700434,80.6408463450498,80.6408463450498,80.76903185003903,q,0.6725335929659195,80.6408463450498,None,80.74149608804146,None,80.74149608804146,None,0.005249374720733613,None,,,,,,,,,,,,,,999,impar,2020_Feb_26_1955,FBC_2019_v2,3.2.4,60.028615516486035,Tecla Q = Feliz,Tecla P = Miedo,
instFear.xlsx,fear.xlsx,miedo o felicidad.,¿Tiene una expresión de miedo o felicidad?,Tecla Q = Miedo,Tecla P = Feliz,q,p,Happy,Fear,Incongruent,I_8_h_f-copy.png,male,0,0,0,0,0,35,35,27,,,,,,,,,,,,,,,,,,,,,,,,,,,,,,,0.9000000000000001,1.0000000000000002,81.38580339105101,82.30800345801981,82.2605743050226,82.37323139602086,q,0.5855827039922588,82.2605743050226,None,82.35512880503666,None,82.35512880503666,None,0.014693210367113352,None,,,,,,,,,,,,,,999,impar,2020_Feb_26_1955,FBC_2019_v2,3.2.4,60.028615516486035,Tecla Q = Feliz,Tecla P = Miedo,
instFear.xlsx,fear.xlsx,miedo o felicidad.,¿Tiene una expresión de miedo o felicidad?,Tecla Q = Miedo,Tecla P = Feliz,q,p,Happy,Happy,Congruent,C_9_h-copy.png,female,0,0,0,0,0,36,36,38,,,,,,,,,,,,,,,,,,,,,,,,,,,,,,,0.9000000000000001,1.0000000000000002,82.88775575102773,83.79261757101631,83.79261757101631,83.92031030304497,p,0.7056309090112336,83.79261757101631,None,83.89244816103019,None,83.89244816103019,None,0.002492660714779049,None,,,,,,,,,,,,,,999,impar,2020_Feb_26_1955,FBC_2019_v2,3.2.4,60.028615516486035,Tecla Q = Feliz,Tecla P = Miedo,
instFear.xlsx,fear.xlsx,miedo o felicidad.,¿Tiene una expresión de miedo o felicidad?,Tecla Q = Miedo,Tecla P = Feliz,q,p,Control,Fear,Control Body,CoBo_8_f-copy.png,male,0,0,0,0,0,37,37,47,,,,,,,,,,,,,,,,,,,,,,,,,,,,,,,1.0000000000000002,1.1000000000000003,84.5543388700462,85.57481509901118,85.55375479900977,85.67164502700325,p,0.9994665320264176,85.55375479900977,None,85.653284421016,None,85.653284421016,None,0.00011843966785818338,None,,,,,,,,,,,,,,999,impar,2020_Feb_26_1955,FBC_2019_v2,3.2.4,60.028615516486035,Tecla Q = Feliz,Tecla P = Miedo,
instFear.xlsx,fear.xlsx,miedo o felicidad.,¿Tiene una expresión de miedo o felicidad?,Tecla Q = Miedo,Tecla P = Feliz,q,p,Control,Fear,Control Body,CoBo_3_f-copy.png,male,0,0,0,0,0,38,38,42,,,,,,,,,,,,,,,,,,,,,,,,,,,,,,,1.2000000000000004,1.3000000000000005,86.60924704000354,87.82430884602945,87.80425612605177,87.9080124500324,q,0.9867461500107311,87.80425612605177,None,87.89039783901535,None,87.89039783901535,None,0.016156629426404834,None,,,,,,,,,,,,,,999,impar,2020_Feb_26_1955,FBC_2019_v2,3.2.4,60.028615516486035,Tecla Q = Feliz,Tecla P = Miedo,
instFear.xlsx,fear.xlsx,miedo o felicidad.,¿Tiene una expresión de miedo o felicidad?,Tecla Q = Miedo,Tecla P = Feliz,q,p,Happy,Fear,Incongruent,I_10_h_f-copy.png,female,0,0,0,0,0,39,39,29,,,,,,,,,,,,,,,,,,,,,,,,,,,,,,,0.9000000000000001,1.0000000000000002,88.85529235901777,89.76231825602008,89.73961931403028,89.85893483704422,p,0.772540139965713,89.73961931403028,None,89.83849261701107,None,89.83849261701107,None,0.014192268368788064,None,,,,,,,,,,,,,,999,impar,2020_Feb_26_1955,FBC_2019_v2,3.2.4,60.028615516486035,Tecla Q = Feliz,Tecla P = Miedo,
instFear.xlsx,fear.xlsx,miedo o felicidad.,¿Tiene una expresión de miedo o felicidad?,Tecla Q = Miedo,Tecla P = Feliz,q,p,Control,Happy,Control Body,CoBo_2_h-copy.png,male,0,0,0,0,0,40,40,51,,,,,,,,,,,,,,,,,,,,,,,,,,,,,,,1.0500000000000003,1.1500000000000004,90.57275672600372,91.62724989402341,91.60584253101842,91.72553985205013,q,0.6883084590081125,91.60584253101842,None,91.70575398404617,None,91.70575398404617,None,0.0007908817497082055,None,,,,,,,,,,,,,,999,impar,2020_Feb_26_1955,FBC_2019_v2,3.2.4,60.028615516486035,Tecla Q = Feliz,Tecla P = Miedo,
instFear.xlsx,fear.xlsx,miedo o felicidad.,¿Tiene una expresión de miedo o felicidad?,Tecla Q = Miedo,Tecla P = Feliz,q,p,Happy,Fear,Incongruent,I_5_h_f-copy.png,female,0,0,0,0,0,41,41,24,,,,,,,,,,,,,,,,,,,,,,,,,,,,,,,0.75,0.85,92.35684942500666,93.13340512604918,93.10798870201688,93.21362418803619,p,0.7680136439739726,93.10798870201688,None,93.19119455805048,None,93.19119455805048,None,0.0021142307086847723,None,,,,,,,,,,,,,,999,impar,2020_Feb_26_1955,FBC_2019_v2,3.2.4,60.028615516486035,Tecla Q = Feliz,Tecla P = Miedo,
instFear.xlsx,fear.xlsx,miedo o felicidad.,¿Tiene una expresión de miedo o felicidad?,Tecla Q = Miedo,Tecla P = Feliz,q,p,Fear,Fear,Congruent,C_3_f-copy.png,male,0,0,0,0,0,42,42,2,,,,,,,,,,,,,,,,,,,,,,,,,,,,,,,0.75,0.85,93.94094766204944,94.71774602500955,94.69207938504405,94.81206305802334,p,0.764115703990683,94.69207938504405,None,94.76489757501986,None,94.76489757501986,None,0.016341842361725867,None,,,,,,,,,,,,,,999,impar,2020_Feb_26_1955,FBC_2019_v2,3.2.4,60.028615516486035,Tecla Q = Feliz,Tecla P = Miedo,
instFear.xlsx,fear.xlsx,miedo o felicidad.,¿Tiene una expresión de miedo o felicidad?,Tecla Q = Miedo,Tecla P = Feliz,q,p,Fear,Fear,Congruent,C_4_f-copy.png,female,0,0,0,0,0,43,43,3,,,,,,,,,,,,,,,,,,,,,,,,,,,,,,,0.9000000000000001,1.0000000000000002,95.49178124399623,96.401862617,96.37659883900778,96.49366111500422,q,0.997593430976849,96.37659883900778,None,96.49366111500422,None,96.49366111500422,None,0.005051459651440382,None,,,,,,,,,,,,,,999,impar,2020_Feb_26_1955,FBC_2019_v2,3.2.4,60.028615516486035,Tecla Q = Feliz,Tecla P = Miedo,
instFear.xlsx,fear.xlsx,miedo o felicidad.,¿Tiene una expresión de miedo o felicidad?,Tecla Q = Miedo,Tecla P = Feliz,q,p,Fear,Happy,Incongruent,I_4_f_h-copy.png,female,0,0,0,0,0,44,44,13,,,,,,,,,,,,,,,,,,,,,,,,,,,,,,,0.75,0.85,97.41070068499539,98.17550875101006,98.17550875101006,98.30973489000462,q,0.6935741020133719,98.17550875101006,None,98.25354850501753,None,98.25354850501753,None,0.004021658678539097,None,,,,,,,,,,,,,,999,impar,2020_Feb_26_1955,FBC_2019_v2,3.2.4,60.028615516486035,Tecla Q = Feliz,Tecla P = Miedo,
instFear.xlsx,fear.xlsx,miedo o felicidad.,¿Tiene una expresión de miedo o felicidad?,Tecla Q = Miedo,Tecla P = Feliz,q,p,Happy,Happy,Congruent,C_2_h-copy.png,male,0,0,0,0,0,45,45,31,,,,,,,,,,,,,,,,,,,,,,,,,,,,,,,0.8,0.9,98.92649241600884,99.74425976001658,99.71749626501696,99.84320728603052,q,0.588643928989768,99.71749626501696,None,99.81898465700215,None,99.81898465700215,None,0.001275132701266557,None,,,,,,,,,,,,,,999,impar,2020_Feb_26_1955,FBC_2019_v2,3.2.4,60.028615516486035,Tecla Q = Feliz,Tecla P = Miedo,
instFear.xlsx,fear.xlsx,miedo o felicidad.,¿Tiene una expresión de miedo o felicidad?,Tecla Q = Miedo,Tecla P = Feliz,q,p,Fear,Happy,Incongruent,I_10_f_h-copy.png,female,0,0,0,0,0,46,46,19,,,,,,,,,,,,,,,,,,,,,,,,,,,,,,,1.2000000000000004,1.3000000000000005,100.34435343003133,101.55973907600855,101.53097304701805,101.66003640601411,q,0.6339910720125772,101.53097304701805,None,101.63053015002515,None,101.63053015002515,None,0.002096977666951716,None,,,,,,,,,,,,,,999,impar,2020_Feb_26_1955,FBC_2019_v2,3.2.4,60.028615516486035,Tecla Q = Feliz,Tecla P = Miedo,
instFear.xlsx,fear.xlsx,miedo o felicidad.,¿Tiene una expresión de miedo o felicidad?,Tecla Q = Miedo,Tecla P = Feliz,q,p,Happy,Happy,Congruent,C_7_h-copy.png,male,0,0,0,0,0,47,47,36,,,,,,,,,,,,,,,,,,,,,,,,,,,,,,,1.1500000000000004,1.2500000000000004,102.24389067600714,103.41059057804523,103.38084568199702,103.49788678402547,q,0.5713249819818884,103.38084568199702,None,103.47692011104664,None,103.47692011104664,None,0.013333237380720675,None,,,,,,,,,,,,,,999,impar,2020_Feb_26_1955,FBC_2019_v2,3.2.4,60.028615516486035,Tecla Q = Feliz,Tecla P = Miedo,
instFear.xlsx,fear.xlsx,miedo o felicidad.,¿Tiene una expresión de miedo o felicidad?,Tecla Q = Miedo,Tecla P = Feliz,q,p,Fear,Fear,Congruent,C_6_f-copy.png,female,0,0,0,0,0,48,48,5,,,,,,,,,,,,,,,,,,,,,,,,,,,,,,,1.1500000000000004,1.2500000000000004,104.01482486899476,105.18472698901314,105.1614476100076,105.28060566203203,p,1.0467029659776017,105.1614476100076,None,105.26140259904787,None,105.26140259904787,None,0.0005472476477734745,None,,,,,,,,,,,,,,999,impar,2020_Feb_26_1955,FBC_2019_v2,3.2.4,60.028615516486035,Tecla Q = Feliz,Tecla P = Miedo,
instFear.xlsx,fear.xlsx,miedo o felicidad.,¿Tiene una expresión de miedo o felicidad?,Tecla Q = Miedo,Tecla P = Feliz,q,p,Happy,Fear,Incongruent,I_4_h_f-copy.png,female,0,0,0,0,0,49,49,23,,,,,,,,,,,,,,,,,,,,,,,,,,,,,,,1.2000000000000004,1.3000000000000005,106.27916531002847,107.50102611101465,107.44901807501446,107.57920304400614,q,0.8769542020163499,107.44901807501446,None,107.55208096804563,None,107.55208096804563,None,0.015511127363424748,None,,,,,,,,,,,,,,999,impar,2020_Feb_26_1955,FBC_2019_v2,3.2.4,60.028615516486035,Tecla Q = Feliz,Tecla P = Miedo,
instFear.xlsx,fear.xlsx,miedo o felicidad.,¿Tiene una expresión de miedo o felicidad?,Tecla Q = Miedo,Tecla P = Feliz,q,p,Happy,Fear,Incongruent,I_3_h_f-copy.png,male,0,0,0,0,0,50,50,22,,,,,,,,,,,,,,,,,,,,,,,,,,,,,,,0.9000000000000001,1.0000000000000002,108.37920135405147,109.29131312004756,109.26578620402142,109.38198991701938,p,1.105181148974225,109.26578620402142,None,109.36289154901169,None,109.36289154901169,None,0.015404407400637865,None,,,,,,,,,,,,,,999,impar,2020_Feb_26_1955,FBC_2019_v2,3.2.4,60.028615516486035,Tecla Q = Feliz,Tecla P = Miedo,
instFear.xlsx,fear.xlsx,miedo o felicidad.,¿Tiene una expresión de miedo o felicidad?,Tecla Q = Miedo,Tecla P = Feliz,q,p,Control,Fear,Control Body,CoBo_9_f-copy.png,female,0,0,0,0,0,51,51,48,,,,,,,,,,,,,,,,,,,,,,,,,,,,,,,0.8,0.9,110.41230826004175,111.2236064800527,111.1981772830477,111.32894080301048,q,0.9581781850429252,111.1981772830477,None,111.30116558400914,None,111.30116558400914,None,0.005100092676002532,None,,,,,,,,,,,,,,999,impar,2020_Feb_26_1955,FBC_2019_v2,3.2.4,60.028615516486035,Tecla Q = Feliz,Tecla P = Miedo,
instFear.xlsx,fear.xlsx,miedo o felicidad.,¿Tiene una expresión de miedo o felicidad?,Tecla Q = Miedo,Tecla P = Feliz,q,p,Control,Fear,Control Body,CoBo_2_f-copy.png,male,0,0,0,0,0,52,52,41,,,,,,,,,,,,,,,,,,,,,,,,,,,,,,,0.8500000000000001,0.9500000000000001,112.2143860150245,113.0905506160343,113.06562553299591,113.1854420460295,p,0.9344675540341996,113.06562553299591,None,113.16405134805245,None,113.16405134805245,None,0.0011283187195658684,None,,,,,,,,,,,,,,999,impar,2020_Feb_26_1955,FBC_2019_v2,3.2.4,60.028615516486035,Tecla Q = Feliz,Tecla P = Miedo,
instFear.xlsx,fear.xlsx,miedo o felicidad.,¿Tiene una expresión de miedo o felicidad?,Tecla Q = Miedo,Tecla P = Feliz,q,p,Fear,Happy,Incongruent,I_3_f_h-copy.png,male,0,0,0,0,0,53,53,12,,,,,,,,,,,,,,,,,,,,,,,,,,,,,,,0.9000000000000001,1.0000000000000002,114.05261732899817,114.97258328401949,114.9518963060109,115.06738722103182,q,0.6149912580149248,114.9518963060109,None,115.04864183004247,None,115.04864183004247,None,0.0006999156903475523,None,,,,,,,,,,,,,,999,impar,2020_Feb_26_1955,FBC_2019_v2,3.2.4,60.028615516486035,Tecla Q = Feliz,Tecla P = Miedo,
instFear.xlsx,fear.xlsx,miedo o felicidad.,¿Tiene una expresión de miedo o felicidad?,Tecla Q = Miedo,Tecla P = Feliz,q,p,Fear,Happy,Incongruent,I_8_f_h-copy.png,male,0,0,0,0,0,54,54,17,,,,,,,,,,,,,,,,,,,,,,,,,,,,,,,1.0500000000000003,1.1500000000000004,115.61688452202361,116.68673495802796,116.66586938605178,116.7847805180354,q,0.8410130450502038,116.66586938605178,None,116.76572847104399,None,116.76572847104399,None,0.0042426136787980795,None,,,,,,,,,,,,,,999,impar,2020_Feb_26_1955,FBC_2019_v2,3.2.4,60.028615516486035,Tecla Q = Feliz,Tecla P = Miedo,
instFear.xlsx,fear.xlsx,miedo o felicidad.,¿Tiene una expresión de miedo o felicidad?,Tecla Q = Miedo,Tecla P = Feliz,q,p,Happy,Happy,Congruent,C_3_h-copy.png,male,0,0,0,0,0,55,55,32,,,,,,,,,,,,,,,,,,,,,,,,,,,,,,,0.9000000000000001,1.0000000000000002,117.58305477001704,118.49559725803556,118.46942148305243,118.58610826102085,q,0.7976778650190681,118.46942148305243,None,118.56635179003933,None,118.56635179003933,None,0.013821960426867008,None,,,,,,,,,,,,,,999,impar,2020_Feb_26_1955,FBC_2019_v2,3.2.4,60.028615516486035,Tecla Q = Feliz,Tecla P = Miedo,
instFear.xlsx,fear.xlsx,miedo o felicidad.,¿Tiene una expresión de miedo o felicidad?,Tecla Q = Miedo,Tecla P = Feliz,q,p,Fear,Happy,Incongruent,I_5_f_h-copy.png,female,0,0,0,0,0,56,56,14,,,,,,,,,,,,,,,,,,,,,,,,,,,,,,,1.1500000000000004,1.2500000000000004,119.30178323801374,120.47364788403502,120.44985161401564,120.5699878000305,q,0.6274386430159211,120.44985161401564,None,120.55090199701954,None,120.55090199701954,None,0.004877191735431552,None,,,,,,,,,,,,,,999,impar,2020_Feb_26_1955,FBC_2019_v2,3.2.4,60.028615516486035,Tecla Q = Feliz,Tecla P = Miedo,
instFear.xlsx,fear.xlsx,miedo o felicidad.,¿Tiene una expresión de miedo o felicidad?,Tecla Q = Miedo,Tecla P = Feliz,q,p,Fear,Fear,Congruent,C_2_f-copy.png,male,0,0,0,0,0,57,57,1,,,,,,,,,,,,,,,,,,,,,,,,,,,,,,,1.1500000000000004,1.2500000000000004,121.13516368001001,122.30438697600039,122.25660992704798,122.36966103699524,p,0.956036652030889,122.25660992704798,None,122.36966103699524,None,122.36966103699524,None,0.0025621577515266836,None,,,,,,,,,,,,,,999,impar,2020_Feb_26_1955,FBC_2019_v2,3.2.4,60.028615516486035,Tecla Q = Feliz,Tecla P = Miedo,
instFear.xlsx,fear.xlsx,miedo o felicidad.,¿Tiene una expresión de miedo o felicidad?,Tecla Q = Miedo,Tecla P = Feliz,q,p,Happy,Fear,Incongruent,I_6_h_f-copy.png,female,0,0,0,0,0,58,58,25,,,,,,,,,,,,,,,,,,,,,,,,,,,,,,,1.2000000000000004,1.3000000000000005,123.26806481002131,124.47575628804043,124.43519700400066,124.54012743604835,p,2.657605721964501,124.43519700400066,None,124.54012743604835,None,124.54012743604835,None,0.016499355377163738,None,,,,,,,,,,,,,,999,impar,2020_Feb_26_1955,FBC_2019_v2,3.2.4,60.028615516486035,Tecla Q = Feliz,Tecla P = Miedo,
instFear.xlsx,fear.xlsx,miedo o felicidad.,¿Tiene una expresión de miedo o felicidad?,Tecla Q = Miedo,Tecla P = Feliz,q,p,Control,Fear,Control Body,CoBo_5_f-copy.png,female,0,0,0,0,0,59,59,44,,,,,,,,,,,,,,,,,,,,,,,,,,,,,,,1.0000000000000002,1.1000000000000003,127.13629829505226,128.15807394200237,128.13720402203035,128.25695623405045,p,2.5975603349506855,128.13720402203035,None,128.2372188960435,None,128.2372188960435,None,0.005163776746485382,None,,,,,,,,,,,,,,999,impar,2020_Feb_26_1955,FBC_2019_v2,3.2.4,60.028615516486035,Tecla Q = Feliz,Tecla P = Miedo,
instFear.xlsx,fear.xlsx,miedo o felicidad.,¿Tiene una expresión de miedo o felicidad?,Tecla Q = Miedo,Tecla P = Feliz,q,p,Happy,Happy,Congruent,C_7_h-copy.png,male,0,0,0,0,1,0,60,36,,,,,,,,,,,,,,,,,,,,,,,,,,,,,,,0.8,0.9,130.77194982103538,131.58242860104656,131.58242860104656,131.70503964001546,q,0.5862899769563228,131.58242860104656,None,131.6558364640223,None,131.6558364640223,None,0.0038881656946614385,None,,,,,,,,,,,,,,999,impar,2020_Feb_26_1955,FBC_2019_v2,3.2.4,60.028615516486035,Tecla Q = Feliz,Tecla P = Miedo,
instFear.xlsx,fear.xlsx,miedo o felicidad.,¿Tiene una expresión de miedo o felicidad?,Tecla Q = Miedo,Tecla P = Feliz,q,p,Control,Happy,Control Body,CoBo_5_h-copy.png,female,0,0,0,0,1,1,61,54,,,,,,,,,,,,,,,,,,,,,,,,,,,,,,,0.9000000000000001,1.0000000000000002,132.22343217104208,133.13008522201562,133.13008522201562,133.24374692101264,q,0.9646507049910724,133.13008522201562,None,133.22217350400751,None,133.22217350400751,None,0.002949470654129982,None,,,,,,,,,,,,,,999,impar,2020_Feb_26_1955,FBC_2019_v2,3.2.4,60.028615516486035,Tecla Q = Feliz,Tecla P = Miedo,
instFear.xlsx,fear.xlsx,miedo o felicidad.,¿Tiene una expresión de miedo o felicidad?,Tecla Q = Miedo,Tecla P = Feliz,q,p,Control,Fear,Control Body,CoBo_5_f-copy.png,female,0,0,0,0,1,2,62,44,,,,,,,,,,,,,,,,,,,,,,,,,,,,,,,0.9000000000000001,1.0000000000000002,134.1410314470413,135.0481983300415,135.02504153602058,135.1392300160369,p,0.8467469830065966,135.02504153602058,None,135.1392300160369,None,135.1392300160369,None,0.005065314646344632,None,,,,,,,,,,,,,,999,impar,2020_Feb_26_1955,FBC_2019_v2,3.2.4,60.028615516486035,Tecla Q = Feliz,Tecla P = Miedo,
instFear.xlsx,fear.xlsx,miedo o felicidad.,¿Tiene una expresión de miedo o felicidad?,Tecla Q = Miedo,Tecla P = Feliz,q,p,Control,Happy,Control Body,CoBo_3_h-copy.png,male,0,0,0,0,1,3,63,52,,,,,,,,,,,,,,,,,,,,,,,,,,,,,,,1.1500000000000004,1.2500000000000004,135.90666151500773,137.06209710304393,137.06209710304393,137.17538587300805,q,0.6727002300322056,137.06209710304393,None,137.15683349600295,None,137.15683349600295,None,0.0065601287060417235,None,,,,,,,,,,,,,,999,impar,2020_Feb_26_1955,FBC_2019_v2,3.2.4,60.028615516486035,Tecla Q = Feliz,Tecla P = Miedo,
instFear.xlsx,fear.xlsx,miedo o felicidad.,¿Tiene una expresión de miedo o felicidad?,Tecla Q = Miedo,Tecla P = Feliz,q,p,Fear,Happy,Incongruent,I_6_f_h-copy.png,female,0,0,0,0,1,4,64,15,,,,,,,,,,,,,,,,,,,,,,,,,,,,,,,0.8500000000000001,0.9500000000000001,137.7917812660453,138.67089900700375,138.62000703200465,138.74102768901503,q,0.5547054570051841,138.62000703200465,None,138.71438147500157,None,138.71438147500157,None,0.003378185734618455,None,,,,,,,,,,,,,,999,impar,2020_Feb_26_1955,FBC_2019_v2,3.2.4,60.028615516486035,Tecla Q = Feliz,Tecla P = Miedo,
instFear.xlsx,fear.xlsx,miedo o felicidad.,¿Tiene una expresión de miedo o felicidad?,Tecla Q = Miedo,Tecla P = Feliz,q,p,Fear,Happy,Incongruent,I_3_f_h-copy.png,male,0,0,0,0,1,5,65,12,,,,,,,,,,,,,,,,,,,,,,,,,,,,,,,1.0000000000000002,1.1000000000000003,139.2291044340236,140.24682749202475,140.2252443950274,140.3463598950184,q,0.5344540600199252,140.2252443950274,None,140.32610036502592,None,140.32610036502592,None,0.0011636956478469074,None,,,,,,,,,,,,,,999,impar,2020_Feb_26_1955,FBC_2019_v2,3.2.4,60.028615516486035,Tecla Q = Feliz,Tecla P = Miedo,
instFear.xlsx,fear.xlsx,miedo o felicidad.,¿Tiene una expresión de miedo o felicidad?,Tecla Q = Miedo,Tecla P = Feliz,q,p,Happy,Fear,Incongruent,I_7_h_f-copy.png,male,0,0,0,0,1,6,66,26,,,,,,,,,,,,,,,,,,,,,,,,,,,,,,,0.75,0.85,140.7947327720467,141.5519799310132,141.5519799310132,141.67644436500268,p,0.7478102489840239,141.5519799310132,None,141.65105381800095,None,141.65105381800095,None,0.002388749737292528,None,,,,,,,,,,,,,,999,impar,2020_Feb_26_1955,FBC_2019_v2,3.2.4,60.028615516486035,Tecla Q = Feliz,Tecla P = Miedo,
instFear.xlsx,fear.xlsx,miedo o felicidad.,¿Tiene una expresión de miedo o felicidad?,Tecla Q = Miedo,Tecla P = Feliz,q,p,Happy,Happy,Congruent,C_4_h-copy.png,female,0,0,0,0,1,7,67,33,,,,,,,,,,,,,,,,,,,,,,,,,,,,,,,1.0000000000000002,1.1000000000000003,142.35938194801565,143.38239314802922,143.33466039202176,143.44650739902863,q,0.6228845669538714,143.33466039202176,None,143.42851328500547,None,143.42851328500547,None,0.016655971412546933,None,,,,,,,,,,,,,,999,impar,2020_Feb_26_1955,FBC_2019_v2,3.2.4,60.028615516486035,Tecla Q = Feliz,Tecla P = Miedo,
instFear.xlsx,fear.xlsx,miedo o felicidad.,¿Tiene una expresión de miedo o felicidad?,Tecla Q = Miedo,Tecla P = Feliz,q,p,Happy,Happy,Congruent,C_9_h-copy.png,female,0,0,0,0,1,8,68,38,,,,,,,,,,,,,,,,,,,,,,,,,,,,,,,1.0000000000000002,1.1000000000000003,143.9969173380523,145.01510480500292,144.9934677540441,145.1097997770412,q,0.6112545490032062,144.9934677540441,None,145.08379845903255,None,145.08379845903255,None,0.00302909966558218,None,,,,,,,,,,,,,,999,impar,2020_Feb_26_1955,FBC_2019_v2,3.2.4,60.028615516486035,Tecla Q = Feliz,Tecla P = Miedo,
instFear.xlsx,fear.xlsx,miedo o felicidad.,¿Tiene una expresión de miedo o felicidad?,Tecla Q = Miedo,Tecla P = Feliz,q,p,Fear,Happy,Incongruent,I_8_f_h-copy.png,male,0,0,0,0,1,9,69,17,,,,,,,,,,,,,,,,,,,,,,,,,,,,,,,1.2000000000000004,1.3000000000000005,145.64582371001597,146.86517982702935,146.84453655802645,146.9639355430263,q,0.5752576020313427,146.84453655802645,None,146.9448631569976,None,146.9448631569976,None,0.002418627729639411,None,,,,,,,,,,,,,,999,impar,2020_Feb_26_1955,FBC_2019_v2,3.2.4,60.028615516486035,Tecla Q = Feliz,Tecla P = Miedo,
instFear.xlsx,fear.xlsx,miedo o felicidad.,¿Tiene una expresión de miedo o felicidad?,Tecla Q = Miedo,Tecla P = Feliz,q,p,Happy,Fear,Incongruent,I_4_h_f-copy.png,female,0,0,0,0,1,10,70,23,,,,,,,,,,,,,,,,,,,,,,,,,,,,,,,0.8500000000000001,0.9500000000000001,147.46134635299677,148.32369681302225,148.2968492100481,148.4142054830445,p,0.8137802070123143,148.2968492100481,None,148.3947813990526,None,148.3947813990526,None,0.006779194693081081,None,,,,,,,,,,,,,,999,impar,2020_Feb_26_1955,FBC_2019_v2,3.2.4,60.028615516486035,Tecla Q = Feliz,Tecla P = Miedo,
instFear.xlsx,fear.xlsx,miedo o felicidad.,¿Tiene una expresión de miedo o felicidad?,Tecla Q = Miedo,Tecla P = Feliz,q,p,Fear,Fear,Congruent,C_8_f-copy.png,male,0,0,0,0,1,11,71,7,,,,,,,,,,,,,,,,,,,,,,,,,,,,,,,0.8500000000000001,0.9500000000000001,149.165193732013,150.0296643320471,149.99978655204177,150.1290716220392,p,0.727878445002716,149.99978655204177,None,150.10093191900523,None,150.10093191900523,None,0.016076802392490208,None,,,,,,,,,,,,,,999,impar,2020_Feb_26_1955,FBC_2019_v2,3.2.4,60.028615516486035,Tecla Q = Feliz,Tecla P = Miedo,
instFear.xlsx,fear.xlsx,miedo o felicidad.,¿Tiene una expresión de miedo o felicidad?,Tecla Q = Miedo,Tecla P = Feliz,q,p,Happy,Happy,Congruent,C_8_h-copy.png,male,0,0,0,0,1,12,72,37,,,,,,,,,,,,,,,,,,,,,,,,,,,,,,,0.8500000000000001,0.9500000000000001,150.76268993603298,151.62458126200363,151.62458126200363,151.7482624760014,q,0.564095762965735,151.62458126200363,None,151.70044110203162,None,151.70044110203162,None,0.004694360715802759,None,,,,,,,,,,,,,,999,impar,2020_Feb_26_1955,FBC_2019_v2,3.2.4,60.028615516486035,Tecla Q = Feliz,Tecla P = Miedo,
instFear.xlsx,fear.xlsx,miedo o felicidad.,¿Tiene una expresión de miedo o felicidad?,Tecla Q = Miedo,Tecla P = Feliz,q,p,Fear,Fear,Congruent,C_7_f-copy.png,male,0,0,0,0,1,13,73,6,,,,,,,,,,,,,,,,,,,,,,,,,,,,,,,1.1500000000000004,1.2500000000000004,152.26370903803036,153.43444826104678,153.38514706102433,153.51644727803068,p,0.6914167170180008,153.38514706102433,None,153.48383810702944,None,153.48383810702944,None,0.01495850138599053,None,,,,,,,,,,,,,,999,impar,2020_Feb_26_1955,FBC_2019_v2,3.2.4,60.028615516486035,Tecla Q = Feliz,Tecla P = Miedo,
instFear.xlsx,fear.xlsx,miedo o felicidad.,¿Tiene una expresión de miedo o felicidad?,Tecla Q = Miedo,Tecla P = Feliz,q,p,Fear,Happy,Incongruent,I_10_f_h-copy.png,female,0,0,0,0,1,14,74,19,,,,,,,,,,,,,,,,,,,,,,,,,,,,,,,0.9500000000000002,1.0500000000000003,154.13148312299745,155.10235021804692,155.08125804102747,155.19897727499483,q,0.7443436729954556,155.08125804102747,None,155.1804689640412,None,155.1804689640412,None,0.00039704266237095,None,,,,,,,,,,,,,,999,impar,2020_Feb_26_1955,FBC_2019_v2,3.2.4,60.028615516486035,Tecla Q = Feliz,Tecla P = Miedo,
instFear.xlsx,fear.xlsx,miedo o felicidad.,¿Tiene una expresión de miedo o felicidad?,Tecla Q = Miedo,Tecla P = Feliz,q,p,Control,Happy,Control Body,CoBo_2_h-copy.png,male,0,0,0,0,1,15,75,51,,,,,,,,,,,,,,,,,,,,,,,,,,,,,,,0.8,0.9,155.88161213404965,156.69403944403166,156.66695183503907,156.7711714140023,q,0.606539984990377,156.66695183503907,None,156.7711714140023,None,156.7711714140023,None,0.0027592057012952864,None,,,,,,,,,,,,,,999,impar,2020_Feb_26_1955,FBC_2019_v2,3.2.4,60.028615516486035,Tecla Q = Feliz,Tecla P = Miedo,
instFear.xlsx,fear.xlsx,miedo o felicidad.,¿Tiene una expresión de miedo o felicidad?,Tecla Q = Miedo,Tecla P = Feliz,q,p,Fear,Fear,Congruent,C_9_f-copy.png,female,0,0,0,0,1,16,76,8,,,,,,,,,,,,,,,,,,,,,,,,,,,,,,,1.2000000000000004,1.3000000000000005,157.34957399399718,158.56600009003887,158.51527839701157,158.63496854703408,p,0.6333349370397627,158.51527839701157,None,158.61558884003898,None,158.61558884003898,None,0.014932865335140377,None,,,,,,,,,,,,,,999,impar,2020_Feb_26_1955,FBC_2019_v2,3.2.4,60.028615516486035,Tecla Q = Feliz,Tecla P = Miedo,
instFear.xlsx,fear.xlsx,miedo o felicidad.,¿Tiene una expresión de miedo o felicidad?,Tecla Q = Miedo,Tecla P = Feliz,q,p,Happy,Fear,Incongruent,I_9_h_f-copy.png,female,0,0,0,0,1,17,77,28,,,,,,,,,,,,,,,,,,,,,,,,,,,,,,,0.75,0.85,159.1861679830472,159.9460656690062,159.9460656690062,160.06692316901172,p,0.49026662000687793,159.9460656690062,None,160.04157107602805,None,160.04157107602805,None,0.002887795679271221,None,,,,,,,,,,,,,,999,impar,2020_Feb_26_1955,FBC_2019_v2,3.2.4,60.028615516486035,Tecla Q = Feliz,Tecla P = Miedo,
instFear.xlsx,fear.xlsx,miedo o felicidad.,¿Tiene una expresión de miedo o felicidad?,Tecla Q = Miedo,Tecla P = Feliz,q,p,Fear,Happy,Incongruent,I_5_f_h-copy.png,female,0,0,0,0,1,18,78,14,,,,,,,,,,,,,,,,,,,,,,,,,,,,,,,0.8,0.9,160.48333075403934,161.2934431229951,161.2934431229951,161.4161782670417,q,0.5469880799646489,161.2934431229951,None,161.38925325899618,None,161.38925325899618,None,0.002874604717362672,None,,,,,,,,,,,,,,999,impar,2020_Feb_26_1955,FBC_2019_v2,3.2.4,60.028615516486035,Tecla Q = Feliz,Tecla P = Miedo,
instFear.xlsx,fear.xlsx,miedo o felicidad.,¿Tiene una expresión de miedo o felicidad?,Tecla Q = Miedo,Tecla P = Feliz,q,p,Fear,Fear,Congruent,C_4_f-copy.png,female,0,0,0,0,1,19,79,3,,,,,,,,,,,,,,,,,,,,,,,,,,,,,,,1.2000000000000004,1.3000000000000005,161.90131835005013,163.10673497599782,163.10673497599782,163.23365837702295,p,0.6679392749792896,163.10673497599782,None,163.20996339200065,None,163.20996339200065,None,0.0021668936824426055,None,,,,,,,,,,,,,,999,impar,2020_Feb_26_1955,FBC_2019_v2,3.2.4,60.028615516486035,Tecla Q = Feliz,Tecla P = Miedo,
instFear.xlsx,fear.xlsx,miedo o felicidad.,¿Tiene una expresión de miedo o felicidad?,Tecla Q = Miedo,Tecla P = Feliz,q,p,Happy,Happy,Congruent,C_1_h-copy.png,male,0,0,0,0,1,20,80,30,,,,,,,,,,,,,,,,,,,,,,,,,,,,,,,0.8,0.9,163.8232824220322,164.65264861204196,164.62613388802856,164.75106952805072,q,0.6445038969977759,164.62613388802856,None,164.72411785804434,None,164.72411785804434,None,0.0041387417004443705,None,,,,,,,,,,,,,,999,impar,2020_Feb_26_1955,FBC_2019_v2,3.2.4,60.028615516486035,Tecla Q = Feliz,Tecla P = Miedo,
instFear.xlsx,fear.xlsx,miedo o felicidad.,¿Tiene una expresión de miedo o felicidad?,Tecla Q = Miedo,Tecla P = Feliz,q,p,Control,Happy,Control Body,CoBo_8_h-copy.png,male,0,0,0,0,1,21,81,57,,,,,,,,,,,,,,,,,,,,,,,,,,,,,,,0.75,0.85,165.31966175499838,166.0760999850463,166.0760999850463,166.2027228770312,q,0.5463790600188076,166.0760999850463,None,166.15393370803213,None,166.15393370803213,None,0.002403667662292719,None,,,,,,,,,,,,,,999,impar,2020_Feb_26_1955,FBC_2019_v2,3.2.4,60.028615516486035,Tecla Q = Feliz,Tecla P = Miedo,
instFear.xlsx,fear.xlsx,miedo o felicidad.,¿Tiene una expresión de miedo o felicidad?,Tecla Q = Miedo,Tecla P = Feliz,q,p,Happy,Fear,Incongruent,I_2_h_f-copy.png,male,0,0,0,0,1,22,82,21,,,,,,,,,,,,,,,,,,,,,,,,,,,,,,,1.1000000000000003,1.2000000000000004,166.68755821400555,167.80566188303055,167.75909070804482,167.8850806010305,p,0.7915984879946336,167.75909070804482,None,167.8850806010305,None,167.8850806010305,None,0.0017716166912578046,None,,,,,,,,,,,,,,999,impar,2020_Feb_26_1955,FBC_2019_v2,3.2.4,60.028615516486035,Tecla Q = Feliz,Tecla P = Miedo,
instFear.xlsx,fear.xlsx,miedo o felicidad.,¿Tiene una expresión de miedo o felicidad?,Tecla Q = Miedo,Tecla P = Feliz,q,p,Control,Fear,Control Body,CoBo_8_f-copy.png,male,0,0,0,0,1,23,83,47,,,,,,,,,,,,,,,,,,,,,,,,,,,,,,,0.75,0.85,168.586116977036,169.3465017740382,169.3465017740382,169.4714999870048,q,0.678009855968412,169.3465017740382,None,169.4209750710288,None,169.4209750710288,None,0.005481023748870939,None,,,,,,,,,,,,,,999,impar,2020_Feb_26_1955,FBC_2019_v2,3.2.4,60.028615516486035,Tecla Q = Feliz,Tecla P = Miedo,
instFear.xlsx,fear.xlsx,miedo o felicidad.,¿Tiene una expresión de miedo o felicidad?,Tecla Q = Miedo,Tecla P = Feliz,q,p,Fear,Happy,Incongruent,I_1_f_h-copy.png,male,0,0,0,0,1,24,84,10,,,,,,,,,,,,,,,,,,,,,,,,,,,,,,,0.75,0.85,170.0734204140026,170.83071872300934,170.83071872300934,170.95458863902604,q,0.7216384619823657,170.83071872300934,None,170.90458447602578,None,170.90458447602578,None,0.016164771397598088,None,,,,,,,,,,,,,,999,impar,2020_Feb_26_1955,FBC_2019_v2,3.2.4,60.028615516486035,Tecla Q = Feliz,Tecla P = Miedo,
instFear.xlsx,fear.xlsx,miedo o felicidad.,¿Tiene una expresión de miedo o felicidad?,Tecla Q = Miedo,Tecla P = Feliz,q,p,Fear,Happy,Incongruent,I_7_f_h-copy.png,male,0,0,0,0,1,25,85,16,,,,,,,,,,,,,,,,,,,,,,,,,,,,,,,0.9000000000000001,1.0000000000000002,171.6072114080307,172.51355624903226,172.4895262659993,172.6086813530419,q,0.9728564899996854,172.4895262659993,None,172.58845065999776,None,172.58845065999776,None,0.015790571400430053,None,,,,,,,,,,,,,,999,impar,2020_Feb_26_1955,FBC_2019_v2,3.2.4,60.028615516486035,Tecla Q = Feliz,Tecla P = Miedo,
instFear.xlsx,fear.xlsx,miedo o felicidad.,¿Tiene una expresión de miedo o felicidad?,Tecla Q = Miedo,Tecla P = Feliz,q,p,Fear,Happy,Incongruent,I_4_f_h-copy.png,female,0,0,0,0,1,26,86,13,,,,,,,,,,,,,,,,,,,,,,,,,,,,,,,1.0500000000000003,1.1500000000000004,173.5225245230249,174.58851172804134,174.56361186201684,174.68883817904862,q,0.6627770529594272,174.56361186201684,None,174.66078698204365,None,174.66078698204365,None,0.0037303227582015097,None,,,,,,,,,,,,,,999,impar,2020_Feb_26_1955,FBC_2019_v2,3.2.4,60.028615516486035,Tecla Q = Feliz,Tecla P = Miedo,
instFear.xlsx,fear.xlsx,miedo o felicidad.,¿Tiene una expresión de miedo o felicidad?,Tecla Q = Miedo,Tecla P = Feliz,q,p,Fear,Happy,Incongruent,I_9_f_h-copy.png,female,0,0,0,0,1,27,87,18,,,,,,,,,,,,,,,,,,,,,,,,,,,,,,,0.8500000000000001,0.9500000000000001,175.28896516404347,176.15618287201505,176.10603793204064,176.22585802502,q,0.8205042600166053,176.10603793204064,None,176.2063654990052,None,176.2063654990052,None,0.014936591382138431,None,,,,,,,,,,,,,,999,impar,2020_Feb_26_1955,FBC_2019_v2,3.2.4,60.028615516486035,Tecla Q = Feliz,Tecla P = Miedo,
instFear.xlsx,fear.xlsx,miedo o felicidad.,¿Tiene una expresión de miedo o felicidad?,Tecla Q = Miedo,Tecla P = Feliz,q,p,Happy,Fear,Incongruent,I_6_h_f-copy.png,female,0,0,0,0,1,28,88,25,,,,,,,,,,,,,,,,,,,,,,,,,,,,,,,0.9000000000000001,1.0000000000000002,176.95969251001952,177.87669351801742,177.85612630401738,177.97291799803497,p,0.6463008269784041,177.85612630401738,None,177.9439940340235,None,177.9439940340235,None,0.0028603746904991567,None,,,,,,,,,,,,,,999,impar,2020_Feb_26_1955,FBC_2019_v2,3.2.4,60.028615516486035,Tecla Q = Feliz,Tecla P = Miedo,
instFear.xlsx,fear.xlsx,miedo o felicidad.,¿Tiene una expresión de miedo o felicidad?,Tecla Q = Miedo,Tecla P = Feliz,q,p,Happy,Happy,Congruent,C_3_h-copy.png,male,0,0,0,0,1,29,89,32,,,,,,,,,,,,,,,,,,,,,,,,,,,,,,,0.8500000000000001,0.9500000000000001,178.540640902007,179.40276010800153,179.40276010800153,179.5230811520014,q,0.6416358650312759,179.40276010800153,None,179.4733829810284,None,179.4733829810284,None,0.004290836630389094,None,,,,,,,,,,,,,,999,impar,2020_Feb_26_1955,FBC_2019_v2,3.2.4,60.028615516486035,Tecla Q = Feliz,Tecla P = Miedo,
instFear.xlsx,fear.xlsx,miedo o felicidad.,¿Tiene una expresión de miedo o felicidad?,Tecla Q = Miedo,Tecla P = Feliz,q,p,Control,Fear,Control Body,CoBo_6_f-copy.png,female,0,0,0,0,1,30,90,45,,,,,,,,,,,,,,,,,,,,,,,,,,,,,,,0.8,0.9,180.09579354600282,180.92536618403392,180.9009559560218,181.02599395700963,p,0.6205498620402068,180.9009559560218,None,181.00777429703157,None,181.00777429703157,None,0.0016240577097050846,None,,,,,,,,,,,,,,999,impar,2020_Feb_26_1955,FBC_2019_v2,3.2.4,60.028615516486035,Tecla Q = Feliz,Tecla P = Miedo,
instFear.xlsx,fear.xlsx,miedo o felicidad.,¿Tiene una expresión de miedo o felicidad?,Tecla Q = Miedo,Tecla P = Feliz,q,p,Control,Fear,Control Body,CoBo_4_f-copy.png,female,0,0,0,0,1,31,91,43,,,,,,,,,,,,,,,,,,,,,,,,,,,,,,,1.1000000000000003,1.2000000000000004,181.55827694002073,182.67446779401507,182.64638982299948,182.76057735003997,q,0.6703163369675167,182.64638982299948,None,182.76057735003997,None,182.76057735003997,None,0.005534353666007519,None,,,,,,,,,,,,,,999,impar,2020_Feb_26_1955,FBC_2019_v2,3.2.4,60.028615516486035,Tecla Q = Feliz,Tecla P = Miedo,
instFear.xlsx,fear.xlsx,miedo o felicidad.,¿Tiene una expresión de miedo o felicidad?,Tecla Q = Miedo,Tecla P = Feliz,q,p,Fear,Happy,Incongruent,I_2_f_h-copy.png,male,0,0,0,0,1,32,92,11,,,,,,,,,,,,,,,,,,,,,,,,,,,,,,,1.1500000000000004,1.2500000000000004,183.37714337703073,184.53132387902588,184.50971780304099,184.6292000930407,q,0.6398175099748187,184.50971780304099,None,184.60935512301512,None,184.60935512301512,None,0.015691259468439966,None,,,,,,,,,,,,,,999,impar,2020_Feb_26_1955,FBC_2019_v2,3.2.4,60.028615516486035,Tecla Q = Feliz,Tecla P = Miedo,
instFear.xlsx,fear.xlsx,miedo o felicidad.,¿Tiene una expresión de miedo o felicidad?,Tecla Q = Miedo,Tecla P = Feliz,q,p,Control,Fear,Control Body,CoBo_9_f-copy.png,female,0,0,0,0,1,33,93,48,,,,,,,,,,,,,,,,,,,,,,,,,,,,,,,0.8500000000000001,0.9500000000000001,185.19434210204054,186.05097702599596,186.05097702599596,186.17609889403684,p,0.7255370730417781,186.05097702599596,None,186.1262194570154,None,186.1262194570154,None,0.004978128708899021,None,,,,,,,,,,,,,,999,impar,2020_Feb_26_1955,FBC_2019_v2,3.2.4,60.028615516486035,Tecla Q = Feliz,Tecla P = Miedo,
instFear.xlsx,fear.xlsx,miedo o felicidad.,¿Tiene una expresión de miedo o felicidad?,Tecla Q = Miedo,Tecla P = Feliz,q,p,Happy,Fear,Incongruent,I_3_h_f-copy.png,male,0,0,0,0,1,34,94,22,,,,,,,,,,,,,,,,,,,,,,,,,,,,,,,0.8,0.9,186.8136679160525,187.65336906700395,187.62840232905,187.74742265901295,q,0.5620963320252486,187.62840232905,None,187.7049643320497,None,187.7049643320497,None,0.004317893704865128,None,,,,,,,,,,,,,,999,impar,2020_Feb_26_1955,FBC_2019_v2,3.2.4,60.028615516486035,Tecla Q = Feliz,Tecla P = Miedo,
instFear.xlsx,fear.xlsx,miedo o felicidad.,¿Tiene una expresión de miedo o felicidad?,Tecla Q = Miedo,Tecla P = Feliz,q,p,Happy,Fear,Incongruent,I_1_h_f-copy.png,male,0,0,0,0,1,35,95,20,,,,,,,,,,,,,,,,,,,,,,,,,,,,,,,1.0000000000000002,1.1000000000000003,188.23014807503205,189.26115006802138,189.23227728600614,189.36131645104615,p,1.266203086997848,189.23227728600614,None,189.33178064000094,None,189.33178064000094,None,0.0025450486573390663,None,,,,,,,,,,,,,,999,impar,2020_Feb_26_1955,FBC_2019_v2,3.2.4,60.028615516486035,Tecla Q = Feliz,Tecla P = Miedo,
instFear.xlsx,fear.xlsx,miedo o felicidad.,¿Tiene una expresión de miedo o felicidad?,Tecla Q = Miedo,Tecla P = Feliz,q,p,Happy,Happy,Congruent,C_6_h-copy.png,female,0,0,0,0,1,36,96,35,,,,,,,,,,,,,,,,,,,,,,,,,,,,,,,0.75,0.85,190.5496472880477,191.3308458380052,191.30806901899632,191.42938532400876,q,0.9032957549788989,191.30806901899632,None,191.4065906580072,None,191.4065906580072,None,0.0008460807730443776,None,,,,,,,,,,,,,,999,impar,2020_Feb_26_1955,FBC_2019_v2,3.2.4,60.028615516486035,Tecla Q = Feliz,Tecla P = Miedo,
instFear.xlsx,fear.xlsx,miedo o felicidad.,¿Tiene una expresión de miedo o felicidad?,Tecla Q = Miedo,Tecla P = Feliz,q,p,Control,Fear,Control Body,CoBo_10_f-copy.png,female,0,0,0,0,1,37,97,49,,,,,,,,,,,,,,,,,,,,,,,,,,,,,,,0.9000000000000001,1.0000000000000002,192.26503265002975,193.171920666995,193.171920666995,193.29576577199623,p,0.9065893640508875,193.171920666995,None,193.26701060001506,None,193.26701060001506,None,0.0017486386932432652,None,,,,,,,,,,,,,,999,impar,2020_Feb_26_1955,FBC_2019_v2,3.2.4,60.028615516486035,Tecla Q = Feliz,Tecla P = Miedo,
instFear.xlsx,fear.xlsx,miedo o felicidad.,¿Tiene una expresión de miedo o felicidad?,Tecla Q = Miedo,Tecla P = Feliz,q,p,Control,Happy,Control Body,CoBo_6_h-copy.png,female,0,0,0,0,1,38,98,55,,,,,,,,,,,,,,,,,,,,,,,,,,,,,,,1.0500000000000003,1.1500000000000004,194.11306100699585,195.17925823002588,195.15291799604893,195.26546978502301,p,0.5385482929996215,195.15291799604893,None,195.24640981602715,None,195.24640981602715,None,0.006280752713792026,None,,,,,,,,,,,,,,999,impar,2020_Feb_26_1955,FBC_2019_v2,3.2.4,60.028615516486035,Tecla Q = Feliz,Tecla P = Miedo,
instFear.xlsx,fear.xlsx,miedo o felicidad.,¿Tiene una expresión de miedo o felicidad?,Tecla Q = Miedo,Tecla P = Feliz,q,p,Happy,Happy,Congruent,C_10_h-copy.png,female,0,0,0,0,1,39,99,39,,,,,,,,,,,,,,,,,,,,,,,,,,,,,,,0.9000000000000001,1.0000000000000002,195.76414765202207,196.68605265399674,196.63748518901411,196.764729069022,q,0.5970370239811018,196.63748518901411,None,196.73659087601118,None,196.73659087601118,None,0.014626005431637168,None,,,,,,,,,,,,,,999,impar,2020_Feb_26_1955,FBC_2019_v2,3.2.4,60.028615516486035,Tecla Q = Feliz,Tecla P = Miedo,
instFear.xlsx,fear.xlsx,miedo o felicidad.,¿Tiene una expresión de miedo o felicidad?,Tecla Q = Miedo,Tecla P = Feliz,q,p,Control,Fear,Control Body,CoBo_7_f-copy.png,male,0,0,0,0,1,40,100,46,,,,,,,,,,,,,,,,,,,,,,,,,,,,,,,1.2000000000000004,1.3000000000000005,197.2981033960241,198.51488112204242,198.48618856602116,198.60267443204066,p,0.5862883049994707,198.48618856602116,None,198.5844004820101,None,198.5844004820101,None,6.954470882192254e-05,None,,,,,,,,,,,,,,999,impar,2020_Feb_26_1955,FBC_2019_v2,3.2.4,60.028615516486035,Tecla Q = Feliz,Tecla P = Miedo,
instFear.xlsx,fear.xlsx,miedo o felicidad.,¿Tiene una expresión de miedo o felicidad?,Tecla Q = Miedo,Tecla P = Feliz,q,p,Happy,Fear,Incongruent,I_10_h_f-copy.png,female,0,0,0,0,1,41,101,29,,,,,,,,,,,,,,,,,,,,,,,,,,,,,,,0.9000000000000001,1.0000000000000002,199.14922945201397,200.0571193480282,200.03347169799963,200.15109767002286,q,0.6037139630061574,200.03347169799963,None,200.13212990103057,None,200.13212990103057,None,0.013573728443589061,None,,,,,,,,,,,,,,999,impar,2020_Feb_26_1955,FBC_2019_v2,3.2.4,60.028615516486035,Tecla Q = Feliz,Tecla P = Miedo,
instFear.xlsx,fear.xlsx,miedo o felicidad.,¿Tiene una expresión de miedo o felicidad?,Tecla Q = Miedo,Tecla P = Feliz,q,p,Fear,Fear,Congruent,C_3_f-copy.png,male,0,0,0,0,1,42,102,2,,,,,,,,,,,,,,,,,,,,,,,,,,,,,,,0.9500000000000002,1.0500000000000003,200.68250386801083,201.638527335017,201.61676479200833,201.73285179102095,p,0.7467157459468581,201.61676479200833,None,201.73285179102095,None,201.73285179102095,None,0.006066368659958243,None,,,,,,,,,,,,,,999,impar,2020_Feb_26_1955,FBC_2019_v2,3.2.4,60.028615516486035,Tecla Q = Feliz,Tecla P = Miedo,
instFear.xlsx,fear.xlsx,miedo o felicidad.,¿Tiene una expresión de miedo o felicidad?,Tecla Q = Miedo,Tecla P = Feliz,q,p,Control,Happy,Control Body,CoBo_10_h-copy.png,female,0,0,0,0,1,43,103,59,,,,,,,,,,,,,,,,,,,,,,,,,,,,,,,1.1000000000000003,1.2000000000000004,202.4003754380392,203.51650084700668,203.49282862100517,203.6172075290233,q,0.5464000070351176,203.49282862100517,None,203.59030339703895,None,203.59030339703895,None,0.004064857726916671,None,,,,,,,,,,,,,,999,impar,2020_Feb_26_1955,FBC_2019_v2,3.2.4,60.028615516486035,Tecla Q = Feliz,Tecla P = Miedo,
instFear.xlsx,fear.xlsx,miedo o felicidad.,¿Tiene una expresión de miedo o felicidad?,Tecla Q = Miedo,Tecla P = Feliz,q,p,Control,Happy,Control Body,CoBo_9_h-copy.png,female,0,0,0,0,1,44,104,58,,,,,,,,,,,,,,,,,,,,,,,,,,,,,,,0.75,0.85,204.10262928000884,204.86054304701975,204.86054304701975,204.98438225704012,p,0.6038686740212142,204.86054304701975,None,204.93655181705253,None,204.93655181705253,None,0.016668500378727913,None,,,,,,,,,,,,,,999,impar,2020_Feb_26_1955,FBC_2019_v2,3.2.4,60.028615516486035,Tecla Q = Feliz,Tecla P = Miedo,
instFear.xlsx,fear.xlsx,miedo o felicidad.,¿Tiene una expresión de miedo o felicidad?,Tecla Q = Miedo,Tecla P = Feliz,q,p,Fear,Fear,Congruent,C_1_f-copy.png,male,0,0,0,0,1,45,105,0,,,,,,,,,,,,,,,,,,,,,,,,,,,,,,,1.2000000000000004,1.3000000000000005,205.50240479799686,206.71791612904053,206.69097010500263,206.8042295060004,p,0.7913920099963434,206.69097010500263,None,206.7850562260137,None,206.7850562260137,None,0.005156659637577832,None,,,,,,,,,,,,,,999,impar,2020_Feb_26_1955,FBC_2019_v2,3.2.4,60.028615516486035,Tecla Q = Feliz,Tecla P = Miedo,
instFear.xlsx,fear.xlsx,miedo o felicidad.,¿Tiene una expresión de miedo o felicidad?,Tecla Q = Miedo,Tecla P = Feliz,q,p,Fear,Fear,Congruent,C_6_f-copy.png,female,0,0,0,0,1,46,106,5,,,,,,,,,,,,,,,,,,,,,,,,,,,,,,,0.8500000000000001,0.9500000000000001,207.51953424001113,208.3788729600492,208.35353741404833,208.46947425301187,q,1.1199351999675855,208.35353741404833,None,208.45140400301898,None,208.45140400301898,None,0.005369154619984329,None,,,,,,,,,,,,,,999,impar,2020_Feb_26_1955,FBC_2019_v2,3.2.4,60.028615516486035,Tecla Q = Feliz,Tecla P = Miedo,
instFear.xlsx,fear.xlsx,miedo o felicidad.,¿Tiene una expresión de miedo o felicidad?,Tecla Q = Miedo,Tecla P = Feliz,q,p,Control,Happy,Control Body,CoBo_1_h-copy.png,male,0,0,0,0,1,47,107,50,,,,,,,,,,,,,,,,,,,,,,,,,,,,,,,0.9500000000000002,1.0500000000000003,209.52216997899814,210.50283319404116,210.47325816500233,210.58925740403356,p,0.6921077559818514,210.47325816500233,None,210.56897449301323,None,210.56897449301323,None,0.00099126371787861,None,,,,,,,,,,,,,,999,impar,2020_Feb_26_1955,FBC_2019_v2,3.2.4,60.028615516486035,Tecla Q = Feliz,Tecla P = Miedo,
instFear.xlsx,fear.xlsx,miedo o felicidad.,¿Tiene una expresión de miedo o felicidad?,Tecla Q = Miedo,Tecla P = Feliz,q,p,Fear,Fear,Congruent,C_5_f-copy.png,female,0,0,0,0,1,48,108,4,,,,,,,,,,,,,,,,,,,,,,,,,,,,,,,0.8,0.9,211.22101357200881,212.04634112503845,211.997787824017,212.12059432902606,p,0.8159333789953962,211.997787824017,None,212.09740553901065,None,212.09740553901065,None,0.0009099216549657285,None,,,,,,,,,,,,,,999,impar,2020_Feb_26_1955,FBC_2019_v2,3.2.4,60.028615516486035,Tecla Q = Feliz,Tecla P = Miedo,
instFear.xlsx,fear.xlsx,miedo o felicidad.,¿Tiene una expresión de miedo o felicidad?,Tecla Q = Miedo,Tecla P = Feliz,q,p,Control,Happy,Control Body,CoBo_4_h-copy.png,female,0,0,0,0,1,49,109,53,,,,,,,,,,,,,,,,,,,,,,,,,,,,,,,1.0000000000000002,1.1000000000000003,212.8704583820072,213.87431627104525,213.85352880100254,213.97095122002065,q,0.7086964849731885,213.85352880100254,None,213.94121885002824,None,213.94121885002824,None,0.00210302765481174,None,,,,,,,,,,,,,,999,impar,2020_Feb_26_1955,FBC_2019_v2,3.2.4,60.028615516486035,Tecla Q = Feliz,Tecla P = Miedo,
instFear.xlsx,fear.xlsx,miedo o felicidad.,¿Tiene una expresión de miedo o felicidad?,Tecla Q = Miedo,Tecla P = Feliz,q,p,Control,Happy,Control Body,CoBo_7_h-copy.png,male,0,0,0,0,1,50,110,56,,,,,,,,,,,,,,,,,,,,,,,,,,,,,,,1.0500000000000003,1.1500000000000004,214.606648667017,215.6882650280022,215.65846981405048,215.78830031800317,p,0.7306692900019698,215.65846981405048,None,215.75855819502613,None,215.75855819502613,None,0.002357853692956269,None,,,,,,,,,,,,,,999,impar,2020_Feb_26_1955,FBC_2019_v2,3.2.4,60.028615516486035,Tecla Q = Feliz,Tecla P = Miedo,
instFear.xlsx,fear.xlsx,miedo o felicidad.,¿Tiene una expresión de miedo o felicidad?,Tecla Q = Miedo,Tecla P = Feliz,q,p,Happy,Fear,Incongruent,I_8_h_f-copy.png,male,0,0,0,0,1,51,111,27,,,,,,,,,,,,,,,,,,,,,,,,,,,,,,,1.1000000000000003,1.2000000000000004,216.45970910403412,217.57268114003818,217.54517132299952,217.6717459470383,p,1.2661626129993238,217.54517132299952,None,217.64289195503807,None,217.64289195503807,None,0.013762767368461937,None,,,,,,,,,,,,,,999,impar,2020_Feb_26_1955,FBC_2019_v2,3.2.4,60.028615516486035,Tecla Q = Feliz,Tecla P = Miedo,
instFear.xlsx,fear.xlsx,miedo o felicidad.,¿Tiene una expresión de miedo o felicidad?,Tecla Q = Miedo,Tecla P = Feliz,q,p,Fear,Fear,Congruent,C_2_f-copy.png,male,0,0,0,0,1,52,112,1,,,,,,,,,,,,,,,,,,,,,,,,,,,,,,,1.2000000000000004,1.3000000000000005,218.87248093402013,220.09027677203994,220.06183735001832,220.19039422104834,p,0.7484065500320867,220.06183735001832,None,220.16122042300412,None,220.16122042300412,None,0.0012499786680564284,None,,,,,,,,,,,,,,999,impar,2020_Feb_26_1955,FBC_2019_v2,3.2.4,60.028615516486035,Tecla Q = Feliz,Tecla P = Miedo,
instFear.xlsx,fear.xlsx,miedo o felicidad.,¿Tiene una expresión de miedo o felicidad?,Tecla Q = Miedo,Tecla P = Feliz,q,p,Control,Fear,Control Body,CoBo_3_f-copy.png,male,0,0,0,0,1,53,113,42,,,,,,,,,,,,,,,,,,,,,,,,,,,,,,,1.1500000000000004,1.2500000000000004,220.84215846203733,222.00708802900044,221.98530695901718,222.0930988790351,q,0.6608559959568083,221.98530695901718,None,222.07407209201483,None,222.07407209201483,None,0.005395502666942775,None,,,,,,,,,,,,,,999,impar,2020_Feb_26_1955,FBC_2019_v2,3.2.4,60.028615516486035,Tecla Q = Feliz,Tecla P = Miedo,
instFear.xlsx,fear.xlsx,miedo o felicidad.,¿Tiene una expresión de miedo o felicidad?,Tecla Q = Miedo,Tecla P = Feliz,q,p,Control,Fear,Control Body,CoBo_1_f-copy.png,male,0,0,0,0,1,54,114,40,,,,,,,,,,,,,,,,,,,,,,,,,,,,,,,0.9500000000000002,1.0500000000000003,222.70730645599542,223.66255776502658,223.64077008503955,223.75991221203003,p,0.7203401559963822,223.64077008503955,None,223.7412480370258,None,223.7412480370258,None,0.01585156039800495,None,,,,,,,,,,,,,,999,impar,2020_Feb_26_1955,FBC_2019_v2,3.2.4,60.028615516486035,Tecla Q = Feliz,Tecla P = Miedo,
instFear.xlsx,fear.xlsx,miedo o felicidad.,¿Tiene una expresión de miedo o felicidad?,Tecla Q = Miedo,Tecla P = Feliz,q,p,Fear,Fear,Congruent,C_10_f-copy.png,female,0,0,0,0,1,55,115,9,,,,,,,,,,,,,,,,,,,,,,,,,,,,,,,1.0500000000000003,1.1500000000000004,224.4253022680059,225.48507999104913,225.44217811099952,225.5584173660027,p,1.1770018429961056,225.44217811099952,None,225.5584173660027,None,225.5584173660027,None,0.016063085407949984,None,,,,,,,,,,,,,,999,impar,2020_Feb_26_1955,FBC_2019_v2,3.2.4,60.028615516486035,Tecla Q = Feliz,Tecla P = Miedo,
instFear.xlsx,fear.xlsx,miedo o felicidad.,¿Tiene una expresión de miedo o felicidad?,Tecla Q = Miedo,Tecla P = Feliz,q,p,Control,Fear,Control Body,CoBo_2_f-copy.png,male,0,0,0,0,1,56,116,41,,,,,,,,,,,,,,,,,,,,,,,,,,,,,,,1.0000000000000002,1.1000000000000003,226.66225855000084,227.69264766800916,227.64329874701798,227.75926647504093,p,0.8469298660056666,227.64329874701798,None,227.75926647504093,None,227.75926647504093,None,0.005341564712580293,None,,,,,,,,,,,,,,999,impar,2020_Feb_26_1955,FBC_2019_v2,3.2.4,60.028615516486035,Tecla Q = Feliz,Tecla P = Miedo,
instFear.xlsx,fear.xlsx,miedo o felicidad.,¿Tiene una expresión de miedo o felicidad?,Tecla Q = Miedo,Tecla P = Feliz,q,p,Happy,Fear,Incongruent,I_5_h_f-copy.png,female,0,0,0,0,1,57,117,24,,,,,,,,,,,,,,,,,,,,,,,,,,,,,,,1.2000000000000004,1.3000000000000005,228.5448232900235,229.76076856802683,229.73516657500295,229.8612652180018,p,1.2421932900324464,229.73516657500295,None,229.8317397350329,None,229.8317397350329,None,0.0019539486966095865,None,,,,,,,,,,,,,,999,impar,2020_Feb_26_1955,FBC_2019_v2,3.2.4,60.028615516486035,Tecla Q = Feliz,Tecla P = Miedo,
instFear.xlsx,fear.xlsx,miedo o felicidad.,¿Tiene una expresión de miedo o felicidad?,Tecla Q = Miedo,Tecla P = Feliz,q,p,Happy,Happy,Congruent,C_2_h-copy.png,male,0,0,0,0,1,58,118,31,,,,,,,,,,,,,,,,,,,,,,,,,,,,,,,1.1000000000000003,1.2000000000000004,231.01374844601378,232.14490935904905,232.11526574904565,232.2447046660236,q,0.7130206819856539,232.11526574904565,None,232.21493435901357,None,232.21493435901357,None,0.0052717276848852634,None,,,,,,,,,,,,,,999,impar,2020_Feb_26_1955,FBC_2019_v2,3.2.4,60.028615516486035,Tecla Q = Feliz,Tecla P = Miedo,
instFear.xlsx,fear.xlsx,miedo o felicidad.,¿Tiene una expresión de miedo o felicidad?,Tecla Q = Miedo,Tecla P = Feliz,q,p,Happy,Happy,Congruent,C_5_h-copy.png,female,0,0,0,0,1,59,119,34,,,,,,,,,,,,,,,,,,,,,,,,,,,,,,,0.75,0.85,232.86522452603094,233.6243221689947,233.6243221689947,233.74564495601226,q,0.6039706040173769,233.6243221689947,None,233.6960830060416,None,233.6960830060416,None,0.005140444729477167,None,,,,,,,,,,,,,,999,impar,2020_Feb_26_1955,FBC_2019_v2,3.2.4,60.028615516486035,Tecla Q = Feliz,Tecla P = Miedo,
instFear.xlsx,fear.xlsx,miedo o felicidad.,¿Tiene una expresión de miedo o felicidad?,Tecla Q = Miedo,Tecla P = Feliz,q,p,,,,,,0,0,0,0,,,,,,,,,,,,,,,,,,,,,,,,,,,,,,,,,,,,,,,,,,,,,,,,,,,234.26239026599796,None,space,1.7266260940232314,234.26239026599796,None,,,,,,,,999,impar,2020_Feb_26_1955,FBC_2019_v2,3.2.4,60.028615516486035,Tecla Q = Feliz,Tecla P = Miedo,
instAnger.xlsx,anger.xlsx,enfado o felicidad.,¿Tiene la persona una CARA enfadada o feliz?,Tecla Q = Enfadado,Tecla P = Feliz,q,p,Control,Anger,Control Body,CoBo_4_a-copy.png,female,0,1,1,1,0,0,0,43,2,,236.0491060130298,None,space,1.0602264839690179,236.0491060130298,None,236.0491060130298,None,237.16504299803637,None,space,1.754365152970422,237.16504299803637,None,237.16504299803637,None,237.16504299803637,None,237.16504299803637,None,238.96407989400905,None,space,0.9642947129905224,238.96407989400905,None,0.015438866743352264,None,1.0500000000000003,1.1500000000000004,244.96766268304782,246.0379587500356,245.9914730580058,246.1165241150302,p,1.0640318999649025,245.9914730580058,None,246.0895389690413,None,246.0895389690413,None,0.007570344372652471,None,,,,,,,p,,,,,,,999,impar,2020_Feb_26_1955,FBC_2019_v2,3.2.4,60.028615516486035,Tecla Q = Feliz,Tecla P = Enfadado,
instAnger.xlsx,anger.xlsx,enfado o felicidad.,¿Tiene la persona una CARA enfadada o feliz?,Tecla Q = Enfadado,Tecla P = Feliz,q,p,Control,Happy,Control Body,CoBo_5_h-copy.png,female,0,1,1,1,0,1,1,54,,,,,,,,,,,,,,,,,,,,,,,,,,,,,,,1.2000000000000004,1.3000000000000005,247.1006161220139,248.32154155202443,248.300537927018,248.41705464903498,q,0.5225947329890914,248.300537927018,None,248.38857427204493,None,248.38857427204493,None,0.0019180126837454736,None,,,,,,,,,,,,,,999,impar,2020_Feb_26_1955,FBC_2019_v2,3.2.4,60.028615516486035,Tecla Q = Feliz,Tecla P = Enfadado,
instAnger.xlsx,anger.xlsx,enfado o felicidad.,¿Tiene la persona una CARA enfadada o feliz?,Tecla Q = Enfadado,Tecla P = Feliz,q,p,Happy,Happy,Congruent,C_4_h-copy.png,female,0,1,1,1,0,2,2,33,,,,,,,,,,,,,,,,,,,,,,,,,,,,,,,1.2000000000000004,1.3000000000000005,248.88470125501044,250.0901408730424,250.06887138303136,250.1890292110038,p,0.7035692660138011,250.06887138303136,None,250.16888842801563,None,250.16888842801563,None,0.0020620336872525513,None,,,,,,,,,,,,,,999,impar,2020_Feb_26_1955,FBC_2019_v2,3.2.4,60.028615516486035,Tecla Q = Feliz,Tecla P = Enfadado,
instAnger.xlsx,anger.xlsx,enfado o felicidad.,¿Tiene la persona una CARA enfadada o feliz?,Tecla Q = Enfadado,Tecla P = Feliz,q,p,Happy,Anger,Incongruent,I_8_h_a-copy.png,male,0,1,1,1,0,3,3,27,,,,,,,,,,,,,,,,,,,,,,,,,,,,,,,1.1000000000000003,1.2000000000000004,250.82024372799788,251.94065583101474,251.894591341028,252.01946133404272,p,0.5679474230273627,251.894591341028,None,251.9916855940246,None,251.9916855940246,None,0.003427306655794382,None,,,,,,,,,,,,,,999,impar,2020_Feb_26_1955,FBC_2019_v2,3.2.4,60.028615516486035,Tecla Q = Feliz,Tecla P = Enfadado,
instAnger.xlsx,anger.xlsx,enfado o felicidad.,¿Tiene la persona una CARA enfadada o feliz?,Tecla Q = Enfadado,Tecla P = Feliz,q,p,Happy,Anger,Incongruent,I_9_h_a-copy.png,female,0,1,1,1,0,4,4,28,,,,,,,,,,,,,,,,,,,,,,,,,,,,,,,1.1000000000000003,1.2000000000000004,252.52022373402724,253.63585095701274,253.6088361290167,253.72001597902272,p,0.5723930610110983,253.6088361290167,None,253.7021349510178,None,253.7021349510178,None,0.0006041927263140678,None,,,,,,,,,,,,,,999,impar,2020_Feb_26_1955,FBC_2019_v2,3.2.4,60.028615516486035,Tecla Q = Feliz,Tecla P = Enfadado,
instAnger.xlsx,anger.xlsx,enfado o felicidad.,¿Tiene la persona una CARA enfadada o feliz?,Tecla Q = Enfadado,Tecla P = Feliz,q,p,Happy,Happy,Congruent,C_7_h-copy.png,male,0,1,1,1,0,5,5,36,,,,,,,,,,,,,,,,,,,,,,,,,,,,,,,1.0500000000000003,1.1500000000000004,254.23673965403577,255.30429937003646,255.277357323037,255.40394893405028,q,0.5628168450202793,255.277357323037,None,255.37564759101951,None,255.37564759101951,None,0.0006157616735436022,None,,,,,,,,,,,,,,999,impar,2020_Feb_26_1955,FBC_2019_v2,3.2.4,60.028615516486035,Tecla Q = Feliz,Tecla P = Enfadado,
instAnger.xlsx,anger.xlsx,enfado o felicidad.,¿Tiene la persona una CARA enfadada o feliz?,Tecla Q = Enfadado,Tecla P = Feliz,q,p,Happy,Happy,Congruent,C_9_h-copy.png,female,0,1,1,1,0,6,6,38,,,,,,,,,,,,,,,,,,,,,,,,,,,,,,,0.9000000000000001,1.0000000000000002,255.90441682899836,256.8111927160062,256.78839776600944,256.90503643802367,q,0.9696750179864466,256.78839776600944,None,256.88720556604676,None,256.88720556604676,None,0.012725682405289263,None,,,,,,,,,,,,,,999,impar,2020_Feb_26_1955,FBC_2019_v2,3.2.4,60.028615516486035,Tecla Q = Feliz,Tecla P = Enfadado,
instAnger.xlsx,anger.xlsx,enfado o felicidad.,¿Tiene la persona una CARA enfadada o feliz?,Tecla Q = Enfadado,Tecla P = Feliz,q,p,Happy,Happy,Congruent,C_10_h-copy.png,female,0,1,1,1,0,7,7,39,,,,,,,,,,,,,,,,,,,,,,,,,,,,,,,0.75,0.85,257.8215390720288,258.5816427890095,258.5816427890095,258.70590370503487,q,0.6554783200263046,258.5816427890095,None,258.656927078031,None,258.656927078031,None,0.01399637438589707,None,,,,,,,,,,,,,,999,impar,2020_Feb_26_1955,FBC_2019_v2,3.2.4,60.028615516486035,Tecla Q = Feliz,Tecla P = Enfadado,
instAnger.xlsx,anger.xlsx,enfado o felicidad.,¿Tiene la persona una CARA enfadada o feliz?,Tecla Q = Enfadado,Tecla P = Feliz,q,p,Control,Anger,Control Body,CoBo_1_a-copy.png,male,0,1,1,1,0,8,8,40,,,,,,,,,,,,,,,,,,,,,,,,,,,,,,,0.9000000000000001,1.0000000000000002,259.27599205600563,260.20597497804556,260.15622385405004,260.2753869360313,p,0.48801307496614754,260.15622385405004,None,260.2753869360313,None,260.2753869360313,None,0.006511114654131234,None,,,,,,,,,,,,,,999,impar,2020_Feb_26_1955,FBC_2019_v2,3.2.4,60.028615516486035,Tecla Q = Feliz,Tecla P = Enfadado,
instAnger.xlsx,anger.xlsx,enfado o felicidad.,¿Tiene la persona una CARA enfadada o feliz?,Tecla Q = Enfadado,Tecla P = Feliz,q,p,Anger,Anger,Congruent,C_7_a-copy.png,male,0,1,1,1,0,9,9,6,,,,,,,,,,,,,,,,,,,,,,,,,,,,,,,0.9500000000000002,1.0500000000000003,260.6934589060256,261.6637197060045,261.62268905102974,261.739628498035,p,0.49148116196738556,261.62268905102974,None,261.71460132300854,None,261.71460132300854,None,0.015924502396956086,None,,,,,,,,,,,,,,999,impar,2020_Feb_26_1955,FBC_2019_v2,3.2.4,60.028615516486035,Tecla Q = Feliz,Tecla P = Enfadado,
instAnger.xlsx,anger.xlsx,enfado o felicidad.,¿Tiene la persona una CARA enfadada o feliz?,Tecla Q = Enfadado,Tecla P = Feliz,q,p,Happy,Happy,Congruent,C_5_h-copy.png,female,0,1,1,1,0,10,10,34,,,,,,,,,,,,,,,,,,,,,,,,,,,,,,,0.9000000000000001,1.0000000000000002,262.1901780880289,263.11277776100906,263.0653620280209,263.1904536940274,q,0.5938646559952758,263.0653620280209,None,263.16119383403566,None,263.16119383403566,None,0.01447014935547486,None,,,,,,,,,,,,,,999,impar,2020_Feb_26_1955,FBC_2019_v2,3.2.4,60.028615516486035,Tecla Q = Feliz,Tecla P = Enfadado,
instAnger.xlsx,anger.xlsx,enfado o felicidad.,¿Tiene la persona una CARA enfadada o feliz?,Tecla Q = Enfadado,Tecla P = Feliz,q,p,Anger,Anger,Congruent,C_3_a-copy.png,male,0,1,1,1,0,11,11,2,,,,,,,,,,,,,,,,,,,,,,,,,,,,,,,1.2000000000000004,1.3000000000000005,263.7121231270139,264.92392487003235,264.89480962901143,265.00813719804864,p,0.7332151099690236,264.89480962901143,None,264.99000157404225,None,264.99000157404225,None,0.01622388034593314,None,,,,,,,,,,,,,,999,impar,2020_Feb_26_1955,FBC_2019_v2,3.2.4,60.028615516486035,Tecla Q = Feliz,Tecla P = Enfadado,
instAnger.xlsx,anger.xlsx,enfado o felicidad.,¿Tiene la persona una CARA enfadada o feliz?,Tecla Q = Enfadado,Tecla P = Feliz,q,p,Anger,Happy,Incongruent,I_4_a_h-copy.png,female,0,1,1,1,0,12,12,13,,,,,,,,,,,,,,,,,,,,,,,,,,,,,,,1.0500000000000003,1.1500000000000004,265.69139059999725,266.7468872020254,266.70731974800583,266.81336184300017,q,0.8480271740118042,266.70731974800583,None,266.79478058300447,None,266.79478058300447,None,0.0166147043928504,None,,,,,,,,,,,,,,999,impar,2020_Feb_26_1955,FBC_2019_v2,3.2.4,60.028615516486035,Tecla Q = Feliz,Tecla P = Enfadado,
instAnger.xlsx,anger.xlsx,enfado o felicidad.,¿Tiene la persona una CARA enfadada o feliz?,Tecla Q = Enfadado,Tecla P = Feliz,q,p,Happy,Anger,Incongruent,I_5_h_a-copy.png,female,0,1,1,1,0,13,13,24,,,,,,,,,,,,,,,,,,,,,,,,,,,,,,,1.1000000000000003,1.2000000000000004,267.59141268604435,268.7087046090164,268.6863166530384,268.8083128770231,p,0.6498911359813064,268.6863166530384,None,268.7795120390365,None,268.7795120390365,None,0.004774560686200857,None,,,,,,,,,,,,,,999,impar,2020_Feb_26_1955,FBC_2019_v2,3.2.4,60.028615516486035,Tecla Q = Feliz,Tecla P = Enfadado,
instAnger.xlsx,anger.xlsx,enfado o felicidad.,¿Tiene la persona una CARA enfadada o feliz?,Tecla Q = Enfadado,Tecla P = Feliz,q,p,Control,Happy,Control Body,CoBo_10_h-copy.png,female,0,1,1,1,0,14,14,59,,,,,,,,,,,,,,,,,,,,,,,,,,,,,,,0.8,0.9,269.4105941960006,270.2290178060066,270.1770496420213,270.2966366360197,q,0.6189762489520945,270.1770496420213,None,270.2765159920091,None,270.2765159920091,None,0.015069507411681116,None,,,,,,,,,,,,,,999,impar,2020_Feb_26_1955,FBC_2019_v2,3.2.4,60.028615516486035,Tecla Q = Feliz,Tecla P = Enfadado,
instAnger.xlsx,anger.xlsx,enfado o felicidad.,¿Tiene la persona una CARA enfadada o feliz?,Tecla Q = Enfadado,Tecla P = Feliz,q,p,Control,Happy,Control Body,CoBo_1_h-copy.png,male,0,1,1,1,0,15,15,50,,,,,,,,,,,,,,,,,,,,,,,,,,,,,,,1.2000000000000004,1.3000000000000005,270.86011513503036,272.0641022280324,272.0432767070015,272.1473296190379,q,1.1420412280131131,272.0432767070015,None,272.1297870980343,None,272.1297870980343,None,0.002205653698183596,None,,,,,,,,,,,,,,999,impar,2020_Feb_26_1955,FBC_2019_v2,3.2.4,60.028615516486035,Tecla Q = Feliz,Tecla P = Enfadado,
instAnger.xlsx,anger.xlsx,enfado o felicidad.,¿Tiene la persona una CARA enfadada o feliz?,Tecla Q = Enfadado,Tecla P = Feliz,q,p,Control,Anger,Control Body,CoBo_2_a-copy.png,male,0,1,1,1,0,16,16,41,,,,,,,,,,,,,,,,,,,,,,,,,,,,,,,0.75,0.85,273.24460852204356,274.0027034910163,274.0027034910163,274.1279155210359,p,0.6673644189722836,274.0027034910163,None,274.0778326240252,None,274.0778326240252,None,0.004073529737070203,None,,,,,,,,,,,,,,999,impar,2020_Feb_26_1955,FBC_2019_v2,3.2.4,60.028615516486035,Tecla Q = Feliz,Tecla P = Enfadado,
instAnger.xlsx,anger.xlsx,enfado o felicidad.,¿Tiene la persona una CARA enfadada o feliz?,Tecla Q = Enfadado,Tecla P = Feliz,q,p,Control,Happy,Control Body,CoBo_3_h-copy.png,male,0,1,1,1,0,17,17,52,,,,,,,,,,,,,,,,,,,,,,,,,,,,,,,0.9000000000000001,1.0000000000000002,274.7148954340373,275.6440455230186,275.61814846104244,275.7292547880206,q,0.6730446600122377,275.61814846104244,None,275.71086937200744,None,275.71086937200744,None,0.001257638679817319,None,,,,,,,,,,,,,,999,impar,2020_Feb_26_1955,FBC_2019_v2,3.2.4,60.028615516486035,Tecla Q = Feliz,Tecla P = Enfadado,
instAnger.xlsx,anger.xlsx,enfado o felicidad.,¿Tiene la persona una CARA enfadada o feliz?,Tecla Q = Enfadado,Tecla P = Feliz,q,p,Happy,Anger,Incongruent,I_10_h_a-copy.png,female,0,1,1,1,0,18,18,29,,,,,,,,,,,,,,,,,,,,,,,,,,,,,,,0.75,0.85,276.3618960240274,277.1389540579985,277.11335960699944,277.2358077740064,p,0.4809001340181567,277.11335960699944,None,277.18627393699717,None,277.18627393699717,None,0.01324541331268847,None,,,,,,,,,,,,,,999,impar,2020_Feb_26_1955,FBC_2019_v2,3.2.4,60.028615516486035,Tecla Q = Feliz,Tecla P = Enfadado,
instAnger.xlsx,anger.xlsx,enfado o felicidad.,¿Tiene la persona una CARA enfadada o feliz?,Tecla Q = Enfadado,Tecla P = Feliz,q,p,Control,Happy,Control Body,CoBo_6_h-copy.png,female,0,1,1,1,0,19,19,55,,,,,,,,,,,,,,,,,,,,,,,,,,,,,,,1.0500000000000003,1.1500000000000004,277.63030336704105,278.6967491490068,278.6711984060239,278.7962030470371,q,0.6049479629728012,278.6711984060239,None,278.76895222603343,None,278.76895222603343,None,0.0053404467180371284,None,,,,,,,,,,,,,,999,impar,2020_Feb_26_1955,FBC_2019_v2,3.2.4,60.028615516486035,Tecla Q = Feliz,Tecla P = Enfadado,
instAnger.xlsx,anger.xlsx,enfado o felicidad.,¿Tiene la persona una CARA enfadada o feliz?,Tecla Q = Enfadado,Tecla P = Feliz,q,p,Control,Happy,Control Body,CoBo_4_h-copy.png,female,0,1,1,1,0,20,20,53,,,,,,,,,,,,,,,,,,,,,,,,,,,,,,,1.1500000000000004,1.2500000000000004,279.33295351604465,280.4966158409952,280.46994365000864,280.5849470900139,q,0.9411377849755809,280.46994365000864,None,280.5849470900139,None,280.5849470900139,None,0.0022542246733792126,None,,,,,,,,,,,,,,999,impar,2020_Feb_26_1955,FBC_2019_v2,3.2.4,60.028615516486035,Tecla Q = Feliz,Tecla P = Enfadado,
instAnger.xlsx,anger.xlsx,enfado o felicidad.,¿Tiene la persona una CARA enfadada o feliz?,Tecla Q = Enfadado,Tecla P = Feliz,q,p,Control,Anger,Control Body,CoBo_9_a-copy.png,female,0,1,1,1,0,21,21,48,,,,,,,,,,,,,,,,,,,,,,,,,,,,,,,1.1500000000000004,1.2500000000000004,281.4635612349957,282.6185564350453,282.5975889270194,282.71443990204716,p,0.6495097710285336,282.5975889270194,None,282.6868177570286,None,282.6868177570286,None,0.0013340527075342834,None,,,,,,,,,,,,,,999,impar,2020_Feb_26_1955,FBC_2019_v2,3.2.4,60.028615516486035,Tecla Q = Feliz,Tecla P = Enfadado,
instAnger.xlsx,anger.xlsx,enfado o felicidad.,¿Tiene la persona una CARA enfadada o feliz?,Tecla Q = Enfadado,Tecla P = Feliz,q,p,Anger,Happy,Incongruent,I_9_a_h-copy.png,female,0,1,1,1,0,22,22,18,,,,,,,,,,,,,,,,,,,,,,,,,,,,,,,1.2000000000000004,1.3000000000000005,283.29797073302325,284.5190330920159,284.4717382020317,284.58989266800927,q,0.7003520759753883,284.4717382020317,None,284.58989266800927,None,284.58989266800927,None,0.0018218146869912744,None,,,,,,,,,,,,,,999,impar,2020_Feb_26_1955,FBC_2019_v2,3.2.4,60.028615516486035,Tecla Q = Feliz,Tecla P = Enfadado,
instAnger.xlsx,anger.xlsx,enfado o felicidad.,¿Tiene la persona una CARA enfadada o feliz?,Tecla Q = Enfadado,Tecla P = Feliz,q,p,Anger,Anger,Congruent,C_10_a-copy.png,female,0,1,1,1,0,23,23,9,,,,,,,,,,,,,,,,,,,,,,,,,,,,,,,1.2000000000000004,1.3000000000000005,285.21744527702685,286.44913852005266,286.42122270102846,286.5493451540242,p,0.7249936059815809,286.42122270102846,None,286.52070622402243,None,286.52070622402243,None,0.0033339866786263883,None,,,,,,,,,,,,,,999,impar,2020_Feb_26_1955,FBC_2019_v2,3.2.4,60.028615516486035,Tecla Q = Feliz,Tecla P = Enfadado,
instAnger.xlsx,anger.xlsx,enfado o felicidad.,¿Tiene la persona una CARA enfadada o feliz?,Tecla Q = Enfadado,Tecla P = Feliz,q,p,Happy,Happy,Congruent,C_3_h-copy.png,male,0,1,1,1,0,24,24,32,,,,,,,,,,,,,,,,,,,,,,,,,,,,,,,1.1000000000000003,1.2000000000000004,287.20069047401194,288.3073412340018,288.28680033399723,288.41610402602237,q,0.8482339819893241,288.28680033399723,None,288.3875170300016,None,288.3875170300016,None,0.0029290607199072838,None,,,,,,,,,,,,,,999,impar,2020_Feb_26_1955,FBC_2019_v2,3.2.4,60.028615516486035,Tecla Q = Feliz,Tecla P = Enfadado,
instAnger.xlsx,anger.xlsx,enfado o felicidad.,¿Tiene la persona una CARA enfadada o feliz?,Tecla Q = Enfadado,Tecla P = Feliz,q,p,Control,Anger,Control Body,CoBo_6_a-copy.png,female,0,1,1,1,0,25,25,45,,,,,,,,,,,,,,,,,,,,,,,,,,,,,,,0.9500000000000002,1.0500000000000003,289.1997273990419,290.153645530052,290.133181754034,290.25058871501824,p,0.7029391970136203,290.133181754034,None,290.22181599005125,None,290.22181599005125,None,0.007413948711473495,None,,,,,,,,,,,,,,999,impar,2020_Feb_26_1955,FBC_2019_v2,3.2.4,60.028615516486035,Tecla Q = Feliz,Tecla P = Enfadado,
instAnger.xlsx,anger.xlsx,enfado o felicidad.,¿Tiene la persona una CARA enfadada o feliz?,Tecla Q = Enfadado,Tecla P = Feliz,q,p,Control,Happy,Control Body,CoBo_8_h-copy.png,male,0,1,1,1,0,26,26,57,,,,,,,,,,,,,,,,,,,,,,,,,,,,,,,0.9000000000000001,1.0000000000000002,290.9010901070433,291.8232048890204,291.7763460560236,291.90081310801907,q,1.0501343489740975,291.7763460560236,None,291.8720245620352,None,291.8720245620352,None,0.0008511737105436623,None,,,,,,,,,,,,,,999,impar,2020_Feb_26_1955,FBC_2019_v2,3.2.4,60.028615516486035,Tecla Q = Feliz,Tecla P = Enfadado,
instAnger.xlsx,anger.xlsx,enfado o felicidad.,¿Tiene la persona una CARA enfadada o feliz?,Tecla Q = Enfadado,Tecla P = Feliz,q,p,Anger,Anger,Congruent,C_1_a-copy.png,male,0,1,1,1,0,27,27,0,,,,,,,,,,,,,,,,,,,,,,,,,,,,,,,0.9500000000000002,1.0500000000000003,292.8859378049965,293.84114730602596,293.8191472760518,293.9373517759959,p,1.0159418359980918,293.8191472760518,None,293.9190533570363,None,293.9190533570363,None,0.01668233040254563,None,,,,,,,,,,,,,,999,impar,2020_Feb_26_1955,FBC_2019_v2,3.2.4,60.028615516486035,Tecla Q = Feliz,Tecla P = Enfadado,
instAnger.xlsx,anger.xlsx,enfado o felicidad.,¿Tiene la persona una CARA enfadada o feliz?,Tecla Q = Enfadado,Tecla P = Feliz,q,p,Happy,Anger,Incongruent,I_1_h_a-copy.png,male,0,1,1,1,0,28,28,20,,,,,,,,,,,,,,,,,,,,,,,,,,,,,,,1.0500000000000003,1.1500000000000004,294.8891691919998,295.9687884210143,295.9201565850526,296.0357031010208,q,0.9140239070402458,295.9201565850526,None,296.00872578000417,None,296.00872578000417,None,0.016127981361933053,None,,,,,,,,,,,,,,999,impar,2020_Feb_26_1955,FBC_2019_v2,3.2.4,60.028615516486035,Tecla Q = Feliz,Tecla P = Enfadado,
instAnger.xlsx,anger.xlsx,enfado o felicidad.,¿Tiene la persona una CARA enfadada o feliz?,Tecla Q = Enfadado,Tecla P = Feliz,q,p,Happy,Anger,Incongruent,I_6_h_a-copy.png,female,0,1,1,1,0,29,29,25,,,,,,,,,,,,,,,,,,,,,,,,,,,,,,,0.8,0.9,296.87311998702353,297.70383457501885,297.67883741803234,297.80344454501756,p,3.579155837011058,297.67883741803234,None,297.7788282260299,None,297.7788282260299,None,0.0022915556328371167,None,,,,,,,,,,,,,,999,impar,2020_Feb_26_1955,FBC_2019_v2,3.2.4,60.028615516486035,Tecla Q = Feliz,Tecla P = Enfadado,
instAnger.xlsx,anger.xlsx,enfado o felicidad.,¿Tiene la persona una CARA enfadada o feliz?,Tecla Q = Enfadado,Tecla P = Feliz,q,p,Anger,Happy,Incongruent,I_6_a_h-copy.png,female,0,1,1,1,0,30,30,15,,,,,,,,,,,,,,,,,,,,,,,,,,,,,,,1.1500000000000004,1.2500000000000004,301.3222367099952,302.4928081930266,302.44825950299855,302.5580267450423,q,0.6663443129509687,302.44825950299855,None,302.53896802599775,None,302.53896802599775,None,0.013692487380467355,None,,,,,,,,,,,,,,999,impar,2020_Feb_26_1955,FBC_2019_v2,3.2.4,60.028615516486035,Tecla Q = Feliz,Tecla P = Enfadado,
instAnger.xlsx,anger.xlsx,enfado o felicidad.,¿Tiene la persona una CARA enfadada o feliz?,Tecla Q = Enfadado,Tecla P = Feliz,q,p,Happy,Anger,Incongruent,I_4_h_a-copy.png,female,0,1,1,1,0,31,31,23,,,,,,,,,,,,,,,,,,,,,,,,,,,,,,,1.2000000000000004,1.3000000000000005,303.1896274420433,304.41083415900357,304.36466624605237,304.490391637024,p,2.053471189981792,304.36466624605237,None,304.4607654820429,None,304.4607654820429,None,0.013485400355421007,None,,,,,,,,,,,,,,999,impar,2020_Feb_26_1955,FBC_2019_v2,3.2.4,60.028615516486035,Tecla Q = Feliz,Tecla P = Enfadado,
instAnger.xlsx,anger.xlsx,enfado o felicidad.,¿Tiene la persona una CARA enfadada o feliz?,Tecla Q = Enfadado,Tecla P = Feliz,q,p,Anger,Happy,Incongruent,I_8_a_h-copy.png,male,0,1,1,1,0,32,32,17,,,,,,,,,,,,,,,,,,,,,,,,,,,,,,,1.1000000000000003,1.2000000000000004,306.4742036150419,307.5797641670215,307.5318182200426,307.65761175804073,q,0.7941180889611132,307.5318182200426,None,307.65761175804073,None,307.65761175804073,None,0.01456608739681542,None,,,,,,,,,,,,,,999,impar,2020_Feb_26_1955,FBC_2019_v2,3.2.4,60.028615516486035,Tecla Q = Feliz,Tecla P = Enfadado,
instAnger.xlsx,anger.xlsx,enfado o felicidad.,¿Tiene la persona una CARA enfadada o feliz?,Tecla Q = Enfadado,Tecla P = Feliz,q,p,Happy,Happy,Congruent,C_1_h-copy.png,male,0,1,1,1,0,33,33,30,,,,,,,,,,,,,,,,,,,,,,,,,,,,,,,1.1500000000000004,1.2500000000000004,308.35893085203134,309.5249770079972,309.49745509104105,309.62555679801153,q,1.4615037660114467,309.49745509104105,None,309.5980462410371,None,309.5980462410371,None,0.005210837698541582,None,,,,,,,,,,,,,,999,impar,2020_Feb_26_1955,FBC_2019_v2,3.2.4,60.028615516486035,Tecla Q = Feliz,Tecla P = Enfadado,
instAnger.xlsx,anger.xlsx,enfado o felicidad.,¿Tiene la persona una CARA enfadada o feliz?,Tecla Q = Enfadado,Tecla P = Feliz,q,p,Happy,Anger,Incongruent,I_3_h_a-copy.png,male,0,1,1,1,0,34,34,22,,,,,,,,,,,,,,,,,,,,,,,,,,,,,,,1.1500000000000004,1.2500000000000004,311.02578849403653,312.17817703203764,312.15836225199746,312.26386106404243,q,2.2874301679548807,312.15836225199746,None,312.2458031560527,None,312.2458031560527,None,0.014323082403279841,None,,,,,,,,,,,,,,999,impar,2020_Feb_26_1955,FBC_2019_v2,3.2.4,60.028615516486035,Tecla Q = Feliz,Tecla P = Enfadado,
instAnger.xlsx,anger.xlsx,enfado o felicidad.,¿Tiene la persona una CARA enfadada o feliz?,Tecla Q = Enfadado,Tecla P = Feliz,q,p,Anger,Anger,Congruent,C_9_a-copy.png,female,0,1,1,1,0,35,35,8,,,,,,,,,,,,,,,,,,,,,,,,,,,,,,,1.2000000000000004,1.3000000000000005,314.51025054603815,315.71777964301873,315.69708224304486,315.8113750300254,q,0.7559224329888821,315.69708224304486,None,315.78282093501184,None,315.78282093501184,None,0.014522523386403918,None,,,,,,,,,,,,,,999,impar,2020_Feb_26_1955,FBC_2019_v2,3.2.4,60.028615516486035,Tecla Q = Feliz,Tecla P = Enfadado,
instAnger.xlsx,anger.xlsx,enfado o felicidad.,¿Tiene la persona una CARA enfadada o feliz?,Tecla Q = Enfadado,Tecla P = Feliz,q,p,Anger,Anger,Congruent,C_6_a-copy.png,female,0,1,1,1,0,36,36,5,,,,,,,,,,,,,,,,,,,,,,,,,,,,,,,0.8500000000000001,0.9500000000000001,316.51113063504454,317.3717617720249,317.3461934950319,317.46558146504685,q,1.0097443829872645,317.3461934950319,None,317.44557200500276,None,317.44557200500276,None,2.2588646970689297e-05,None,,,,,,,,,,,,,,999,impar,2020_Feb_26_1955,FBC_2019_v2,3.2.4,60.028615516486035,Tecla Q = Feliz,Tecla P = Enfadado,
instAnger.xlsx,anger.xlsx,enfado o felicidad.,¿Tiene la persona una CARA enfadada o feliz?,Tecla Q = Enfadado,Tecla P = Feliz,q,p,Happy,Happy,Congruent,C_2_h-copy.png,male,0,1,1,1,0,37,37,31,,,,,,,,,,,,,,,,,,,,,,,,,,,,,,,0.9000000000000001,1.0000000000000002,318.412223102001,319.335967275023,319.2918466950068,319.4126835530042,q,1.4512049590121023,319.2918466950068,None,319.3834198190016,None,319.3834198190016,None,0.002575199701823294,None,,,,,,,,,,,,,,999,impar,2020_Feb_26_1955,FBC_2019_v2,3.2.4,60.028615516486035,Tecla Q = Feliz,Tecla P = Enfadado,
instAnger.xlsx,anger.xlsx,enfado o felicidad.,¿Tiene la persona una CARA enfadada o feliz?,Tecla Q = Enfadado,Tecla P = Feliz,q,p,Anger,Happy,Incongruent,I_5_a_h-copy.png,female,0,1,1,1,0,38,38,14,,,,,,,,,,,,,,,,,,,,,,,,,,,,,,,0.9500000000000002,1.0500000000000003,320.8146223940421,321.79641333100153,321.74659000104293,321.8662414349965,p,2.7934867800213397,321.74659000104293,None,321.8468322310364,None,321.8468322310364,None,0.012892193393781781,None,,,,,,,,,,,,,,999,impar,2020_Feb_26_1955,FBC_2019_v2,3.2.4,60.028615516486035,Tecla Q = Feliz,Tecla P = Enfadado,
instAnger.xlsx,anger.xlsx,enfado o felicidad.,¿Tiene la persona una CARA enfadada o feliz?,Tecla Q = Enfadado,Tecla P = Feliz,q,p,Control,Anger,Control Body,CoBo_5_a-copy.png,female,0,1,1,1,0,39,39,44,,,,,,,,,,,,,,,,,,,,,,,,,,,,,,,0.9500000000000002,1.0500000000000003,324.599045939045,325.5533925930504,325.5533925930504,325.66809193301015,p,0.6995370200020261,325.5533925930504,None,325.6303021720378,None,325.6303021720378,None,0.00032437260961160064,None,,,,,,,,,,,,,,999,impar,2020_Feb_26_1955,FBC_2019_v2,3.2.4,60.028615516486035,Tecla Q = Feliz,Tecla P = Enfadado,
instAnger.xlsx,anger.xlsx,enfado o felicidad.,¿Tiene la persona una CARA enfadada o feliz?,Tecla Q = Enfadado,Tecla P = Feliz,q,p,Anger,Anger,Congruent,C_5_a-copy.png,female,0,1,1,1,0,40,40,4,,,,,,,,,,,,,,,,,,,,,,,,,,,,,,,1.0500000000000003,1.1500000000000004,326.3029603770119,327.38234149001073,327.3321439330466,327.46578100003535,q,0.7417801229748875,327.3321439330466,None,327.4352816500468,None,327.4352816500468,None,0.015003992419224232,None,,,,,,,,,,,,,,999,impar,2020_Feb_26_1955,FBC_2019_v2,3.2.4,60.028615516486035,Tecla Q = Feliz,Tecla P = Enfadado,
instAnger.xlsx,anger.xlsx,enfado o felicidad.,¿Tiene la persona una CARA enfadada o feliz?,Tecla Q = Enfadado,Tecla P = Feliz,q,p,Anger,Anger,Congruent,C_8_a-copy.png,male,0,1,1,1,0,41,41,7,,,,,,,,,,,,,,,,,,,,,,,,,,,,,,,1.1000000000000003,1.2000000000000004,328.11613491602475,329.23320345801767,329.20468620804604,329.3330102619948,p,1.278274225012865,329.20468620804604,None,329.30528694204986,None,329.30528694204986,None,0.0047959237126633525,None,,,,,,,,,,,,,,999,impar,2020_Feb_26_1955,FBC_2019_v2,3.2.4,60.028615516486035,Tecla Q = Feliz,Tecla P = Enfadado,
instAnger.xlsx,anger.xlsx,enfado o felicidad.,¿Tiene la persona una CARA enfadada o feliz?,Tecla Q = Enfadado,Tecla P = Feliz,q,p,Control,Anger,Control Body,CoBo_8_a-copy.png,male,0,1,1,1,0,42,42,47,,,,,,,,,,,,,,,,,,,,,,,,,,,,,,,0.8,0.9,330.53482325799996,331.3431352120242,331.3431352120242,331.4660885190242,p,0.8136015060008503,331.3431352120242,None,331.44072715804214,None,331.44072715804214,None,0.002280909684486687,None,,,,,,,,,,,,,,999,impar,2020_Feb_26_1955,FBC_2019_v2,3.2.4,60.028615516486035,Tecla Q = Feliz,Tecla P = Enfadado,
instAnger.xlsx,anger.xlsx,enfado o felicidad.,¿Tiene la persona una CARA enfadada o feliz?,Tecla Q = Enfadado,Tecla P = Feliz,q,p,Happy,Anger,Incongruent,I_2_h_a-copy.png,male,0,1,1,1,0,43,43,21,,,,,,,,,,,,,,,,,,,,,,,,,,,,,,,0.9500000000000002,1.0500000000000003,332.2188820380252,333.1756682150299,333.1518707050127,333.2701256030123,p,0.6270727660157718,333.1518707050127,None,333.2506625080132,None,333.2506625080132,None,0.016360889363568276,None,,,,,,,,,,,,,,999,impar,2020_Feb_26_1955,FBC_2019_v2,3.2.4,60.028615516486035,Tecla Q = Feliz,Tecla P = Enfadado,
instAnger.xlsx,anger.xlsx,enfado o felicidad.,¿Tiene la persona una CARA enfadada o feliz?,Tecla Q = Enfadado,Tecla P = Feliz,q,p,Control,Anger,Control Body,CoBo_7_a-copy.png,male,0,1,1,1,0,44,44,46,,,,,,,,,,,,,,,,,,,,,,,,,,,,,,,1.0500000000000003,1.1500000000000004,333.8352849910152,334.90639535401715,334.8559322869987,334.9850425540353,q,0.9759934060275555,334.8559322869987,None,334.9562617140473,None,334.9562617140473,None,0.016529249376617372,None,,,,,,,,,,,,,,999,impar,2020_Feb_26_1955,FBC_2019_v2,3.2.4,60.028615516486035,Tecla Q = Feliz,Tecla P = Enfadado,
instAnger.xlsx,anger.xlsx,enfado o felicidad.,¿Tiene la persona una CARA enfadada o feliz?,Tecla Q = Enfadado,Tecla P = Feliz,q,p,Happy,Happy,Congruent,C_6_h-copy.png,female,0,1,1,1,0,45,45,35,,,,,,,,,,,,,,,,,,,,,,,,,,,,,,,1.1000000000000003,1.2000000000000004,335.88860426004976,337.01034881401574,336.9687999720336,337.0856244339957,p,0.7018895269720815,336.9687999720336,None,337.0565171770286,None,337.0565171770286,None,0.016151565359905362,None,,,,,,,,,,,,,,999,impar,2020_Feb_26_1955,FBC_2019_v2,3.2.4,60.028615516486035,Tecla Q = Feliz,Tecla P = Enfadado,
instAnger.xlsx,anger.xlsx,enfado o felicidad.,¿Tiene la persona una CARA enfadada o feliz?,Tecla Q = Enfadado,Tecla P = Feliz,q,p,Control,Anger,Control Body,CoBo_3_a-copy.png,male,0,1,1,1,0,46,46,42,,,,,,,,,,,,,,,,,,,,,,,,,,,,,,,1.0500000000000003,1.1500000000000004,337.7224641570356,338.80385110899806,338.7751911600353,338.9034749530256,p,0.7647646149853244,338.7751911600353,None,338.87437381001655,None,338.87437381001655,None,0.0019513467559590936,None,,,,,,,,,,,,,,999,impar,2020_Feb_26_1955,FBC_2019_v2,3.2.4,60.028615516486035,Tecla Q = Feliz,Tecla P = Enfadado,
instAnger.xlsx,anger.xlsx,enfado o felicidad.,¿Tiene la persona una CARA enfadada o feliz?,Tecla Q = Enfadado,Tecla P = Feliz,q,p,Control,Happy,Control Body,CoBo_2_h-copy.png,male,0,1,1,1,0,47,47,51,,,,,,,,,,,,,,,,,,,,,,,,,,,,,,,1.1500000000000004,1.2500000000000004,339.5739702170249,340.7534395630355,340.72484719904605,340.84030539903324,q,0.64881995995529,340.72484719904605,None,340.8208203870454,None,340.8208203870454,None,0.0034816277329809964,None,,,,,,,,,,,,,,999,impar,2020_Feb_26_1955,FBC_2019_v2,3.2.4,60.028615516486035,Tecla Q = Feliz,Tecla P = Enfadado,
instAnger.xlsx,anger.xlsx,enfado o felicidad.,¿Tiene la persona una CARA enfadada o feliz?,Tecla Q = Enfadado,Tecla P = Feliz,q,p,Anger,Anger,Congruent,C_4_a-copy.png,female,0,1,1,1,0,48,48,3,,,,,,,,,,,,,,,,,,,,,,,,,,,,,,,1.1500000000000004,1.2500000000000004,341.4420247260132,342.6044930900098,342.5757322200225,342.70464106905274,p,0.6099941200227477,342.5757322200225,None,342.6756803920143,None,342.6756803920143,None,0.012440842401701957,None,,,,,,,,,,,,,,999,impar,2020_Feb_26_1955,FBC_2019_v2,3.2.4,60.028615516486035,Tecla Q = Feliz,Tecla P = Enfadado,
instAnger.xlsx,anger.xlsx,enfado o felicidad.,¿Tiene la persona una CARA enfadada o feliz?,Tecla Q = Enfadado,Tecla P = Feliz,q,p,Control,Happy,Control Body,CoBo_7_h-copy.png,male,0,1,1,1,0,49,49,56,,,,,,,,,,,,,,,,,,,,,,,,,,,,,,,1.0000000000000002,1.1000000000000003,343.2379087010049,344.25496153201675,344.2266159460414,344.354748947022,q,0.5021893510129303,344.2266159460414,None,344.3257503120112,None,344.3257503120112,None,0.001246890693437308,None,,,,,,,,,,,,,,999,impar,2020_Feb_26_1955,FBC_2019_v2,3.2.4,60.028615516486035,Tecla Q = Feliz,Tecla P = Enfadado,
instAnger.xlsx,anger.xlsx,enfado o felicidad.,¿Tiene la persona una CARA enfadada o feliz?,Tecla Q = Enfadado,Tecla P = Feliz,q,p,Anger,Happy,Incongruent,I_7_a_h-copy.png,male,0,1,1,1,0,50,50,16,,,,,,,,,,,,,,,,,,,,,,,,,,,,,,,1.0500000000000003,1.1500000000000004,344.7746500420035,345.83948374004103,345.8126712870435,345.93939454702195,p,0.6571112099918537,345.8126712870435,None,345.9112502110074,None,345.9112502110074,None,0.0011305037187412381,None,,,,,,,,,,,,,,999,impar,2020_Feb_26_1955,FBC_2019_v2,3.2.4,60.028615516486035,Tecla Q = Feliz,Tecla P = Enfadado,
instAnger.xlsx,anger.xlsx,enfado o felicidad.,¿Tiene la persona una CARA enfadada o feliz?,Tecla Q = Enfadado,Tecla P = Feliz,q,p,Anger,Happy,Incongruent,I_10_a_h-copy.png,female,0,1,1,1,0,51,51,19,,,,,,,,,,,,,,,,,,,,,,,,,,,,,,,0.8,0.9,346.50918113900116,347.34313887602184,347.3162527240347,347.4395492710173,q,0.9964956390322186,347.3162527240347,None,347.3915703340317,None,347.3915703340317,None,0.003870600718073547,None,,,,,,,,,,,,,,999,impar,2020_Feb_26_1955,FBC_2019_v2,3.2.4,60.028615516486035,Tecla Q = Feliz,Tecla P = Enfadado,
instAnger.xlsx,anger.xlsx,enfado o felicidad.,¿Tiene la persona una CARA enfadada o feliz?,Tecla Q = Enfadado,Tecla P = Feliz,q,p,Happy,Happy,Congruent,C_8_h-copy.png,male,0,1,1,1,0,52,52,37,,,,,,,,,,,,,,,,,,,,,,,,,,,,,,,1.1000000000000003,1.2000000000000004,348.37383213604335,349.49102583603235,349.44204142299714,349.55966511304723,q,4.758908074989449,349.44204142299714,None,349.5406761500053,None,349.5406761500053,None,0.015397236391436309,None,,,,,,,,,,,,,,999,impar,2020_Feb_26_1955,FBC_2019_v2,3.2.4,60.028615516486035,Tecla Q = Feliz,Tecla P = Enfadado,
instAnger.xlsx,anger.xlsx,enfado o felicidad.,¿Tiene la persona una CARA enfadada o feliz?,Tecla Q = Enfadado,Tecla P = Feliz,q,p,Anger,Happy,Incongruent,I_3_a_h-copy.png,male,0,1,1,1,0,53,53,12,,,,,,,,,,,,,,,,,,,,,,,,,,,,,,,1.0500000000000003,1.1500000000000004,354.2604780070251,355.3253119800356,355.2990115180146,355.41150261601433,q,0.847592379024718,355.2990115180146,None,355.3930852820049,None,355.3930852820049,None,0.0008881177054718137,None,,,,,,,,,,,,,,999,impar,2020_Feb_26_1955,FBC_2019_v2,3.2.4,60.028615516486035,Tecla Q = Feliz,Tecla P = Enfadado,
instAnger.xlsx,anger.xlsx,enfado o felicidad.,¿Tiene la persona una CARA enfadada o feliz?,Tecla Q = Enfadado,Tecla P = Feliz,q,p,Control,Anger,Control Body,CoBo_10_a-copy.png,female,0,1,1,1,0,54,54,49,,,,,,,,,,,,,,,,,,,,,,,,,,,,,,,1.2000000000000004,1.3000000000000005,356.1932809250429,357.4098258910235,357.3817765490385,357.4925823190133,p,0.8479670759988949,357.3817765490385,None,357.4925823190133,None,357.4925823190133,None,0.005673383653629571,None,,,,,,,,,,,,,,999,impar,2020_Feb_26_1955,FBC_2019_v2,3.2.4,60.028615516486035,Tecla Q = Feliz,Tecla P = Enfadado,
instAnger.xlsx,anger.xlsx,enfado o felicidad.,¿Tiene la persona una CARA enfadada o feliz?,Tecla Q = Enfadado,Tecla P = Feliz,q,p,Anger,Happy,Incongruent,I_2_a_h-copy.png,male,0,1,1,1,0,55,55,11,,,,,,,,,,,,,,,,,,,,,,,,,,,,,,,0.8500000000000001,0.9500000000000001,358.260176115029,359.1402684940258,359.11303051101277,359.2303086480242,p,1.9306322049815208,359.11303051101277,None,359.210993745015,None,359.210993745015,None,0.004060130740981549,None,,,,,,,,,,,,,,999,impar,2020_Feb_26_1955,FBC_2019_v2,3.2.4,60.028615516486035,Tecla Q = Feliz,Tecla P = Enfadado,
